subj,trial,trialtype,side,response,outcome,rt,version
1,1,3,right,S2,4.0,1477,4
1,2,1,left,S1,0.0,1348,4
1,3,2,left,S2,0.0,756,4
1,4,8,left,S3,2.0,1119,4
1,5,7,left,S2,0.0,792,4
1,6,1,left,S1,0.0,1398,4
1,7,6,left,S1,0.0,820,4
1,8,8,right,S3,2.0,964,4
1,9,8,left,S3,2.0,588,4
1,10,7,left,S2,4.0,767,4
1,11,4,right,S3,2.0,954,4
1,12,9,right,S4,4.0,1210,4
1,13,3,left,S4,4.0,1499,4
1,14,9,left,S4,4.0,537,4
1,15,6,left,S1,0.0,894,4
1,16,9,left,S4,4.0,617,4
1,17,9,right,S4,4.0,697,4
1,18,8,left,S3,2.0,547,4
1,19,7,right,S2,0.0,759,4
1,20,6,right,S1,0.0,950,4
1,21,6,left,S1,0.0,1112,4
1,22,5,right,S4,4.0,845,4
1,23,5,left,S4,4.0,626,4
1,24,7,right,S2,4.0,848,4
1,25,4,right,S3,2.0,913,4
1,26,2,right,S3,2.0,1009,4
1,27,2,right,S3,2.0,700,4
1,28,1,right,S2,0.0,1360,4
1,29,5,left,S4,4.0,800,4
1,30,4,right,S3,2.0,690,4
1,31,5,right,S4,4.0,741,4
1,32,8,right,S3,2.0,893,4
1,33,7,left,S2,4.0,738,4
1,34,6,right,S1,0.0,949,4
1,35,3,left,S4,4.0,489,4
1,36,8,right,S3,2.0,716,4
1,37,3,left,S4,4.0,485,4
1,38,5,left,S4,4.0,763,4
1,39,9,right,S4,4.0,683,4
1,40,9,right,S4,4.0,876,4
1,41,9,right,S4,4.0,1118,4
1,42,6,left,S1,0.0,772,4
1,43,3,left,S4,4.0,571,4
1,44,2,left,S3,2.0,793,4
1,45,2,left,S3,2.0,598,4
1,46,2,left,S3,2.0,581,4
1,47,4,left,S3,2.0,1010,4
1,48,4,left,S3,2.0,467,4
1,49,2,right,S3,2.0,515,4
1,50,9,left,S4,4.0,529,4
1,51,8,right,S3,2.0,467,4
1,52,7,right,S2,4.0,912,4
1,53,2,right,S3,2.0,603,4
1,54,8,left,S3,2.0,489,4
1,55,9,left,S4,4.0,531,4
1,56,3,right,S4,4.0,531,4
1,57,3,right,S4,4.0,488,4
1,58,1,right,S2,4.0,973,4
1,59,2,left,S3,2.0,622,4
1,60,7,left,S2,0.0,690,4
1,61,4,right,S3,2.0,563,4
1,62,3,right,S4,4.0,579,4
1,63,2,right,S3,2.0,616,4
1,64,1,left,S1,0.0,645,4
1,65,7,left,S2,4.0,984,4
1,66,7,left,S2,0.0,536,4
1,67,3,right,S4,4.0,541,4
1,68,5,left,S4,4.0,824,4
1,69,5,left,S4,4.0,609,4
1,70,7,right,S2,0.0,782,4
1,71,2,left,S3,2.0,740,4
1,72,3,left,S4,4.0,518,4
1,73,9,left,S4,4.0,652,4
1,74,3,right,S4,4.0,485,4
1,75,6,right,S1,0.0,762,4
1,76,8,right,S3,2.0,603,4
1,77,5,right,S4,4.0,612,4
1,78,2,right,S3,2.0,803,4
1,79,2,right,S3,2.0,701,4
1,80,2,left,S3,2.0,573,4
1,81,2,left,S3,2.0,616,4
1,82,4,right,S3,2.0,682,4
1,83,2,left,S3,2.0,548,4
1,84,3,right,S4,4.0,531,4
1,85,1,left,S2,4.0,1107,4
1,86,1,left,S2,0.0,604,4
1,87,2,right,S3,2.0,648,4
1,88,2,left,S3,2.0,546,4
1,89,3,left,S4,4.0,471,4
1,90,2,right,S3,2.0,510,4
1,91,8,right,S3,2.0,575,4
1,92,6,right,S1,0.0,1520,4
1,93,1,right,S2,0.0,1019,4
1,94,1,left,S1,0.0,1124,4
1,95,1,left,S2,0.0,1137,4
1,96,3,right,S4,4.0,1307,4
1,97,2,right,S3,2.0,632,4
1,98,3,left,S4,4.0,534,4
1,99,4,right,S3,2.0,475,4
1,100,7,right,S2,4.0,1092,4
1,101,3,right,S4,4.0,619,4
1,102,1,right,S2,0.0,1527,4
1,103,7,right,S2,0.0,453,4
1,104,1,left,S1,0.0,508,4
1,105,5,left,S4,4.0,561,4
1,106,5,right,S4,4.0,433,4
1,107,2,left,S3,2.0,1009,4
1,108,7,left,S2,4.0,577,4
1,109,6,right,S1,0.0,652,4
1,110,6,left,S1,0.0,831,4
1,111,1,right,S2,4.0,543,4
1,112,6,left,S1,0.0,797,4
1,113,2,right,S3,2.0,853,4
1,114,1,right,S1,0.0,1112,4
1,115,8,right,S3,2.0,630,4
1,116,8,left,S3,2.0,541,4
1,117,4,left,S3,2.0,717,4
1,118,7,left,S2,4.0,671,4
1,119,3,right,S4,4.0,565,4
1,120,2,left,S3,2.0,513,4
1,121,4,right,S3,2.0,509,4
1,122,2,right,S3,2.0,583,4
1,123,8,left,S3,2.0,569,4
1,124,1,left,S1,0.0,1102,4
1,125,2,left,S2,4.0,515,4
1,126,8,left,S3,2.0,731,4
1,127,3,right,S4,4.0,748,4
1,128,5,left,S4,4.0,576,4
1,129,8,right,S3,2.0,501,4
1,130,4,left,S3,2.0,612,4
1,131,9,left,S4,4.0,547,4
1,132,7,left,S2,0.0,569,4
1,133,7,right,S2,4.0,496,4
1,134,4,right,S3,2.0,834,4
1,135,9,right,S4,4.0,519,4
1,136,6,left,S1,0.0,733,4
1,137,9,right,S4,4.0,499,4
1,138,4,right,S3,2.0,734,4
1,139,5,right,S4,4.0,618,4
1,140,3,right,S4,4.0,459,4
1,141,9,left,S4,4.0,444,4
1,142,5,left,S4,4.0,607,4
1,143,5,right,S4,4.0,571,4
1,144,3,right,S4,4.0,570,4
1,145,6,left,S1,0.0,708,4
1,146,2,right,S3,2.0,726,4
1,147,1,right,S2,0.0,818,4
1,148,6,left,S1,0.0,662,4
1,149,1,left,S2,4.0,568,4
1,150,2,right,S3,2.0,733,4
1,151,1,right,S1,0.0,536,4
1,152,6,right,S1,0.0,782,4
1,153,1,right,S2,4.0,505,4
1,154,2,right,S3,2.0,642,4
1,155,1,left,S2,0.0,970,4
1,156,2,left,S2,0.0,553,4
1,157,9,right,S4,4.0,588,4
1,158,5,right,S4,4.0,658,4
1,159,9,left,S4,4.0,659,4
1,160,4,left,S3,2.0,1033,4
1,161,6,left,S1,0.0,2303,4
1,162,1,right,S2,0.0,658,4
1,163,4,right,S3,2.0,502,4
1,164,8,left,S3,2.0,814,4
1,165,5,left,S4,4.0,471,4
1,166,2,right,S3,2.0,751,4
1,167,3,left,S4,4.0,592,4
1,168,2,right,S3,2.0,637,4
1,169,7,right,S2,4.0,597,4
1,170,3,left,S4,4.0,659,4
1,171,4,left,S3,2.0,712,4
1,172,1,left,S2,0.0,638,4
1,173,7,left,S2,4.0,636,4
1,174,2,right,S3,2.0,777,4
1,175,4,left,S3,2.0,576,4
1,176,5,left,S4,4.0,619,4
2,1,6,left,S1,0.0,822,4
2,2,5,right,S3,2.0,675,4
2,3,2,right,S3,2.0,555,4
2,4,1,left,S2,0.0,759,4
2,5,6,right,S1,0.0,576,4
2,6,9,left,S4,4.0,657,4
2,7,8,left,S3,2.0,632,4
2,8,7,right,S2,4.0,788,4
2,9,8,right,S3,2.0,456,4
2,10,3,right,S4,4.0,810,4
2,11,6,left,S1,0.0,534,4
2,12,2,left,S3,2.0,1064,4
2,13,8,left,S3,2.0,579,4
2,14,8,right,S3,2.0,535,4
2,15,4,left,S3,2.0,1048,4
2,16,1,right,S1,0.0,586,4
2,17,4,left,S3,2.0,779,4
2,18,3,right,S4,4.0,753,4
2,19,7,right,S2,4.0,820,4
2,20,6,left,S1,0.0,614,4
2,21,7,left,S2,4.0,552,4
2,22,7,right,S2,0.0,569,4
2,23,9,left,S4,4.0,555,4
2,24,9,left,S4,4.0,472,4
2,25,5,right,S4,4.0,1137,4
2,26,9,left,S4,4.0,577,4
2,27,2,left,S2,4.0,1189,4
2,28,2,left,S2,0.0,723,4
2,29,1,right,S2,0.0,789,4
2,30,2,right,S3,2.0,917,4
2,31,4,right,S3,2.0,747,4
2,32,3,left,S4,4.0,673,4
2,33,1,right,S2,0.0,855,4
2,34,6,right,S1,0.0,662,4
2,35,4,left,S3,2.0,955,4
2,36,2,left,S3,2.0,695,4
2,37,2,right,S2,4.0,622,4
2,38,8,left,S3,2.0,540,4
2,39,3,left,S2,4.0,481,4
2,40,5,right,S4,4.0,593,4
2,41,9,left,S4,4.0,551,4
2,42,7,left,S2,4.0,529,4
2,43,3,right,S2,4.0,738,4
2,44,1,right,S2,0.0,551,4
2,45,2,left,S2,0.0,868,4
2,46,6,left,S1,0.0,595,4
2,47,2,right,S3,2.0,937,4
2,48,7,left,S2,0.0,533,4
2,49,3,right,S2,4.0,748,4
2,50,8,right,S3,2.0,826,4
2,51,9,left,S4,4.0,499,4
2,52,4,left,S3,2.0,1002,4
2,53,5,left,S4,4.0,582,4
2,54,1,right,S2,0.0,726,4
2,55,7,right,S2,4.0,610,4
2,56,2,right,S3,2.0,1185,4
2,57,4,right,S3,2.0,886,4
2,58,3,right,S4,4.0,936,4
2,59,2,right,S2,0.0,1255,4
2,60,8,right,S3,2.0,515,4
2,61,1,left,S2,0.0,1032,4
2,62,2,left,S2,4.0,1997,4
2,63,1,right,S2,0.0,763,4
2,64,5,right,S4,4.0,690,4
2,65,4,right,S1,0.0,677,4
2,66,6,right,S1,0.0,685,4
2,67,2,left,S3,2.0,1227,4
2,68,4,left,S3,2.0,1003,4
2,69,5,left,S4,4.0,565,4
2,70,3,left,S4,4.0,614,4
2,71,5,right,S4,4.0,838,4
2,72,7,right,S2,4.0,534,4
2,73,6,left,S1,0.0,474,4
2,74,5,right,S4,4.0,798,4
2,75,5,left,S4,4.0,523,4
2,76,1,left,S2,0.0,745,4
2,77,3,right,S4,4.0,546,4
2,78,8,left,S3,2.0,473,4
2,79,2,right,S3,2.0,1240,4
2,80,4,left,S3,2.0,1129,4
2,81,2,left,S3,2.0,789,4
2,82,4,left,S3,2.0,637,4
2,83,3,left,S2,0.0,918,4
2,84,2,right,S3,2.0,1151,4
2,85,7,left,S2,4.0,671,4
2,86,7,left,S2,4.0,522,4
2,87,7,right,S2,4.0,486,4
2,88,6,left,S1,0.0,581,4
2,89,1,left,S2,4.0,969,4
2,90,3,left,S4,4.0,565,4
2,91,5,left,S4,4.0,543,4
2,92,9,left,S4,4.0,495,4
2,93,6,left,S1,0.0,708,4
2,94,9,right,S4,4.0,528,4
2,95,1,right,S2,0.0,896,4
2,96,1,left,S2,0.0,624,4
2,97,2,left,S3,2.0,710,4
2,98,2,left,S2,4.0,929,4
2,99,1,right,S2,0.0,674,4
2,100,7,left,S2,4.0,566,4
2,101,8,left,S3,2.0,543,4
2,102,1,left,S2,4.0,807,4
2,103,6,left,S1,0.0,411,4
2,104,5,left,S4,4.0,672,4
2,105,8,right,S3,2.0,609,4
2,106,9,right,S4,4.0,525,4
2,107,6,right,S1,0.0,432,4
2,108,2,left,S2,0.0,715,4
2,109,3,right,S4,4.0,716,4
2,110,6,right,S1,0.0,519,4
2,111,3,left,S4,4.0,594,4
2,112,6,left,S1,0.0,523,4
2,113,4,right,S3,2.0,692,4
2,114,8,right,S3,2.0,570,4
2,115,9,left,S4,4.0,594,4
2,116,1,left,S2,0.0,1044,4
2,117,5,left,S4,4.0,595,4
2,118,6,right,S1,0.0,567,4
2,119,1,right,S2,0.0,1010,4
2,120,3,right,S4,4.0,851,4
2,121,3,right,S4,4.0,740,4
2,122,3,right,S4,4.0,660,4
2,123,2,right,S3,2.0,905,4
2,124,3,left,S4,4.0,705,4
2,125,4,right,S3,2.0,1089,4
2,126,2,left,S3,2.0,1531,4
2,127,5,left,S4,4.0,561,4
2,128,8,right,S3,2.0,573,4
2,129,2,left,S2,4.0,574,4
2,130,2,right,S3,2.0,601,4
2,131,3,right,S4,4.0,832,4
2,132,2,left,S3,2.0,979,4
2,133,3,right,S4,4.0,648,4
2,134,5,right,S4,4.0,587,4
2,135,7,left,S2,0.0,692,4
2,136,9,left,S4,4.0,517,4
2,137,3,left,S4,4.0,567,4
2,138,9,left,S4,4.0,525,4
2,139,4,left,S3,2.0,948,4
2,140,9,right,S4,4.0,549,4
2,141,2,left,S3,2.0,1291,4
2,142,7,left,S2,0.0,506,4
2,143,1,right,S2,0.0,612,4
2,144,2,right,S3,2.0,897,4
2,145,3,left,S4,4.0,682,4
2,146,1,left,S2,0.0,836,4
2,147,4,right,S3,2.0,641,4
2,148,7,right,S2,4.0,689,4
2,149,2,left,S3,2.0,1314,4
2,150,1,left,S2,4.0,879,4
2,151,5,left,S4,4.0,608,4
2,152,9,left,S4,4.0,441,4
2,153,1,right,S2,4.0,618,4
2,154,7,left,S2,4.0,595,4
2,155,2,left,S2,4.0,703,4
2,156,7,left,S2,0.0,557,4
2,157,4,left,S3,2.0,934,4
2,158,3,left,S4,4.0,648,4
2,159,2,left,S2,4.0,509,4
2,160,5,left,S4,4.0,671,4
2,161,8,left,S3,2.0,527,4
2,162,2,right,S2,4.0,1129,4
2,163,2,right,S2,0.0,840,4
2,164,8,left,S3,2.0,528,4
2,165,2,left,S2,4.0,708,4
2,166,4,left,S3,2.0,599,4
2,167,5,right,S4,4.0,723,4
2,168,8,left,S3,2.0,592,4
2,169,4,left,S3,2.0,850,4
2,170,9,left,S4,4.0,479,4
2,171,8,left,S3,2.0,755,4
2,172,1,left,S2,0.0,1168,4
2,173,9,right,S4,4.0,851,4
2,174,1,right,S2,0.0,600,4
2,175,7,left,S2,4.0,544,4
2,176,6,left,S1,0.0,875,4
3,1,3,left,S4,4.0,514,4
3,2,8,right,S3,2.0,1238,4
3,3,8,right,S3,2.0,541,4
3,4,7,left,S2,4.0,622,4
3,5,5,right,S4,4.0,949,4
3,6,8,left,wrongside,,608,4
3,7,4,left,S1,0.0,823,4
3,8,3,right,S4,4.0,1121,4
3,9,7,right,S2,4.0,911,4
3,10,6,right,S1,0.0,891,4
3,11,6,right,S1,0.0,562,4
3,12,6,right,wrongside,,753,4
3,13,9,left,S4,4.0,747,4
3,14,2,right,S2,0.0,923,4
3,15,1,right,S2,4.0,915,4
3,16,5,left,S3,2.0,858,4
3,17,9,right,S4,4.0,680,4
3,18,6,right,S1,0.0,835,4
3,19,8,right,S3,2.0,704,4
3,20,2,right,S3,2.0,983,4
3,21,1,right,S2,4.0,774,4
3,22,9,left,S4,4.0,762,4
3,23,9,right,S4,4.0,653,4
3,24,4,left,S3,2.0,888,4
3,25,7,left,S2,0.0,927,4
3,26,7,left,S2,0.0,848,4
3,27,5,left,S4,4.0,786,4
3,28,3,left,S4,4.0,712,4
3,29,4,left,S3,2.0,1032,4
3,30,2,right,S2,0.0,1336,4
3,31,5,right,S4,4.0,1014,4
3,32,5,left,S4,4.0,800,4
3,33,3,right,S4,4.0,1023,4
3,34,2,left,S2,0.0,949,4
3,35,5,left,S4,4.0,943,4
3,36,2,left,S3,2.0,1303,4
3,37,7,left,S2,0.0,662,4
3,38,8,left,S3,2.0,686,4
3,39,8,right,S3,2.0,691,4
3,40,4,left,S3,2.0,1482,4
3,41,6,right,S1,0.0,1102,4
3,42,2,right,S3,2.0,1049,4
3,43,5,left,S4,4.0,831,4
3,44,4,left,S3,2.0,959,4
3,45,3,right,S4,4.0,821,4
3,46,9,left,S4,4.0,614,4
3,47,2,right,S3,2.0,1279,4
3,48,2,right,S3,2.0,728,4
3,49,7,right,S2,4.0,939,4
3,50,2,right,S3,2.0,801,4
3,51,2,left,S3,2.0,1118,4
3,52,7,right,S2,4.0,1048,4
3,53,6,left,S1,0.0,707,4
3,54,3,right,S4,4.0,753,4
3,55,1,right,S2,0.0,1442,4
3,56,2,right,S3,2.0,969,4
3,57,2,right,S3,2.0,858,4
3,58,1,left,S2,4.0,1009,4
3,59,1,left,S2,4.0,819,4
3,60,5,right,S4,4.0,804,4
3,61,2,left,S3,2.0,1076,4
3,62,4,left,S3,2.0,1150,4
3,63,1,right,S2,0.0,1487,4
3,64,3,right,S4,4.0,788,4
3,65,4,left,S3,2.0,1017,4
3,66,3,right,S4,4.0,984,4
3,67,3,left,S4,4.0,830,4
3,68,9,right,S4,4.0,611,4
3,69,9,right,S4,4.0,507,4
3,70,7,right,S2,0.0,991,4
3,71,2,right,S3,2.0,882,4
3,72,8,left,S3,2.0,730,4
3,73,9,right,S4,4.0,659,4
3,74,8,right,S3,2.0,656,4
3,75,8,left,S3,2.0,606,4
3,76,3,right,S4,4.0,614,4
3,77,2,right,S3,2.0,734,4
3,78,3,left,S4,4.0,672,4
3,79,6,right,S1,0.0,732,4
3,80,5,left,S4,4.0,750,4
3,81,2,left,S3,2.0,790,4
3,82,6,right,S1,0.0,755,4
3,83,7,left,S2,0.0,542,4
3,84,2,right,S2,4.0,714,4
3,85,1,right,S2,4.0,710,4
3,86,3,left,S4,4.0,762,4
3,87,8,right,S3,2.0,593,4
3,88,7,right,S2,0.0,602,4
3,89,9,right,S4,4.0,526,4
3,90,2,left,S3,2.0,725,4
3,91,2,left,S3,2.0,534,4
3,92,2,right,S3,2.0,666,4
3,93,1,right,S1,0.0,1273,4
3,94,7,right,S2,0.0,622,4
3,95,1,right,S2,4.0,870,4
3,96,1,left,S2,4.0,1142,4
3,97,6,right,wrongside,,754,4
3,98,3,right,S4,4.0,703,4
3,99,7,left,S2,4.0,684,4
3,100,1,right,S2,0.0,804,4
3,101,1,right,S2,4.0,786,4
3,102,9,right,S4,4.0,812,4
3,103,5,left,S4,4.0,778,4
3,104,6,right,S1,0.0,931,4
3,105,4,left,S3,2.0,675,4
3,106,4,right,S3,2.0,786,4
3,107,6,left,S1,0.0,591,4
3,108,3,left,S4,4.0,1035,4
3,109,8,left,S3,2.0,586,4
3,110,1,right,S2,0.0,824,4
3,111,2,right,S3,2.0,644,4
3,112,9,right,S4,4.0,603,4
3,113,4,right,S3,2.0,679,4
3,114,6,left,S1,0.0,655,4
3,115,1,right,S2,0.0,624,4
3,116,4,right,S3,2.0,644,4
3,117,3,right,S4,4.0,1063,4
3,118,5,left,S3,2.0,733,4
3,119,5,left,S4,4.0,693,4
3,120,1,left,S2,0.0,806,4
3,121,8,right,S3,2.0,506,4
3,122,7,left,S2,4.0,563,4
3,123,8,left,S3,2.0,478,4
3,124,5,right,S4,4.0,595,4
3,125,2,left,S3,2.0,1276,4
3,126,2,left,S3,2.0,733,4
3,127,1,right,S2,4.0,768,4
3,128,7,right,S2,0.0,499,4
3,129,3,right,S4,4.0,717,4
3,130,6,right,S1,0.0,746,4
3,131,9,right,S4,4.0,591,4
3,132,3,left,S4,4.0,2308,4
3,133,1,left,S2,0.0,903,4
3,134,2,right,S3,2.0,721,4
3,135,4,right,S3,2.0,658,4
3,136,9,right,S4,4.0,501,4
3,137,1,right,S2,4.0,883,4
3,138,7,left,S2,0.0,563,4
3,139,2,left,S3,2.0,928,4
3,140,2,right,S3,2.0,1225,4
3,141,4,right,S3,2.0,761,4
3,142,2,left,S3,2.0,1452,4
3,143,7,left,S2,0.0,1052,4
3,144,3,right,S4,4.0,652,4
3,145,3,left,S4,4.0,854,4
3,146,7,right,S2,4.0,647,4
3,147,9,right,S4,4.0,576,4
3,148,8,right,S3,2.0,596,4
3,149,9,left,S4,4.0,468,4
3,150,1,right,S2,4.0,877,4
3,151,2,left,S3,2.0,944,4
3,152,1,right,S2,4.0,746,4
3,153,4,left,S3,2.0,727,4
3,154,2,left,S3,2.0,762,4
3,155,6,right,S1,0.0,797,4
3,156,3,left,S4,4.0,630,4
3,157,1,right,S2,0.0,899,4
3,158,2,left,S3,2.0,723,4
3,159,4,right,S3,2.0,775,4
3,160,2,left,S3,2.0,1311,4
3,161,6,right,wrongside,,1234,4
3,162,5,left,S4,4.0,1017,4
3,163,6,right,S1,0.0,689,4
3,164,8,right,S3,2.0,665,4
3,165,3,right,S4,4.0,675,4
3,166,2,right,S3,2.0,935,4
3,167,5,right,S4,4.0,769,4
3,168,1,right,S2,0.0,938,4
3,169,8,right,S3,2.0,514,4
3,170,9,left,S4,4.0,621,4
3,171,4,left,S3,2.0,872,4
3,172,7,right,S2,4.0,692,4
3,173,3,right,S4,4.0,671,4
3,174,5,left,S4,4.0,781,4
3,175,5,right,S4,4.0,529,4
3,176,4,right,S3,2.0,684,4
4,1,9,left,S4,4.0,1046,4
4,2,1,left,S1,0.0,954,4
4,3,9,left,S4,4.0,801,4
4,4,4,left,S1,0.0,1220,4
4,5,2,left,S3,2.0,902,4
4,6,3,left,S4,4.0,1059,4
4,7,7,right,S2,0.0,916,4
4,8,1,right,S1,0.0,1116,4
4,9,7,left,S2,4.0,570,4
4,10,5,right,S4,4.0,1161,4
4,11,2,right,S3,2.0,1155,4
4,12,4,left,S3,2.0,1187,4
4,13,6,left,S1,0.0,497,4
4,14,6,right,S1,0.0,631,4
4,15,8,left,S3,2.0,927,4
4,16,3,right,S4,4.0,1007,4
4,17,8,right,S3,2.0,693,4
4,18,9,left,S4,4.0,539,4
4,19,7,left,S2,4.0,615,4
4,20,8,right,S3,2.0,824,4
4,21,6,left,S1,0.0,874,4
4,22,9,left,S4,4.0,476,4
4,23,7,right,S2,0.0,515,4
4,24,8,right,S3,2.0,508,4
4,25,5,right,S4,4.0,700,4
4,26,6,right,S1,0.0,479,4
4,27,2,right,S2,0.0,706,4
4,28,7,left,S2,4.0,477,4
4,29,4,left,S3,2.0,744,4
4,30,1,right,S2,4.0,628,4
4,31,5,left,S4,4.0,618,4
4,32,6,left,S1,0.0,510,4
4,33,2,left,S2,0.0,963,4
4,34,2,right,S2,0.0,591,4
4,35,8,left,S3,2.0,455,4
4,36,8,left,S3,2.0,519,4
4,37,3,right,S4,4.0,694,4
4,38,3,left,S4,4.0,546,4
4,39,5,right,S4,4.0,573,4
4,40,1,left,S1,0.0,620,4
4,41,6,right,S1,0.0,517,4
4,42,3,right,S4,4.0,480,4
4,43,2,right,S2,4.0,819,4
4,44,2,right,S2,4.0,607,4
4,45,8,right,S3,2.0,762,4
4,46,3,left,S4,4.0,619,4
4,47,8,left,S3,2.0,617,4
4,48,9,left,S4,4.0,533,4
4,49,2,left,S2,4.0,898,4
4,50,1,left,S2,0.0,661,4
4,51,1,left,S2,0.0,481,4
4,52,5,right,S4,4.0,655,4
4,53,4,right,S3,2.0,712,4
4,54,3,right,S4,4.0,603,4
4,55,8,right,S3,2.0,656,4
4,56,7,left,S2,0.0,488,4
4,57,3,right,S4,4.0,524,4
4,58,1,right,S2,4.0,539,4
4,59,2,right,S2,0.0,471,4
4,60,2,right,S3,2.0,896,4
4,61,3,right,S4,4.0,637,4
4,62,1,right,S2,4.0,683,4
4,63,9,right,S4,4.0,500,4
4,64,5,left,S4,4.0,815,4
4,65,7,left,S2,0.0,828,4
4,66,4,left,S3,2.0,711,4
4,67,5,left,S4,4.0,608,4
4,68,2,left,S2,0.0,871,4
4,69,2,right,S3,2.0,460,4
4,70,4,right,S3,2.0,528,4
4,71,1,left,S2,4.0,728,4
4,72,6,right,S1,0.0,490,4
4,73,7,left,S2,4.0,638,4
4,74,6,right,S1,0.0,700,4
4,75,9,left,S4,4.0,506,4
4,76,9,right,S4,4.0,521,4
4,77,2,left,S2,4.0,756,4
4,78,7,right,S2,0.0,469,4
4,79,1,right,S2,0.0,637,4
4,80,2,left,S2,4.0,604,4
4,81,6,right,S1,0.0,494,4
4,82,3,left,S4,4.0,567,4
4,83,4,right,S3,2.0,742,4
4,84,1,left,S1,0.0,623,4
4,85,5,right,S4,4.0,609,4
4,86,7,left,S2,4.0,498,4
4,87,4,right,S3,2.0,626,4
4,88,3,left,S4,4.0,553,4
4,89,5,left,S4,4.0,483,4
4,90,6,right,S1,0.0,526,4
4,91,5,left,S4,4.0,461,4
4,92,7,right,S2,4.0,453,4
4,93,1,right,S2,0.0,623,4
4,94,2,right,S2,4.0,450,4
4,95,3,left,S4,4.0,579,4
4,96,3,left,S4,4.0,446,4
4,97,7,left,S2,0.0,623,4
4,98,2,left,S2,0.0,764,4
4,99,1,right,S1,0.0,836,4
4,100,5,left,S4,4.0,578,4
4,101,3,right,S4,4.0,589,4
4,102,3,right,S4,4.0,486,4
4,103,7,right,S2,4.0,610,4
4,104,1,left,S2,4.0,586,4
4,105,4,left,S3,2.0,685,4
4,106,2,right,S2,0.0,753,4
4,107,9,right,S4,4.0,455,4
4,108,1,right,S2,4.0,633,4
4,109,8,right,S3,2.0,560,4
4,110,2,left,S3,2.0,902,4
4,111,4,left,S3,2.0,588,4
4,112,8,left,S3,2.0,450,4
4,113,2,right,S2,4.0,854,4
4,114,1,right,S2,0.0,662,4
4,115,2,left,S3,2.0,1580,4
4,116,6,right,S1,0.0,655,4
4,117,5,right,S3,2.0,456,4
4,118,2,right,S2,0.0,950,4
4,119,8,left,S3,2.0,483,4
4,120,3,left,S4,4.0,571,4
4,121,2,left,S3,2.0,736,4
4,122,5,left,S4,4.0,465,4
4,123,5,right,S4,4.0,522,4
4,124,8,left,S3,2.0,620,4
4,125,7,left,S2,0.0,460,4
4,126,4,left,S3,2.0,908,4
4,127,2,right,S3,2.0,847,4
4,128,1,right,S2,0.0,616,4
4,129,5,left,S4,4.0,547,4
4,130,1,right,S2,0.0,625,4
4,131,2,left,S2,0.0,1026,4
4,132,2,right,S3,2.0,464,4
4,133,2,right,S3,2.0,394,4
4,134,2,right,S3,2.0,491,4
4,135,2,right,S3,2.0,434,4
4,136,4,right,S3,2.0,440,4
4,137,2,right,S3,2.0,443,4
4,138,1,left,S2,0.0,709,4
4,139,4,right,S3,2.0,599,4
4,140,8,left,S3,2.0,440,4
4,141,3,right,S4,4.0,618,4
4,142,7,right,S2,4.0,492,4
4,143,4,left,S3,2.0,636,4
4,144,6,left,S1,0.0,598,4
4,145,3,left,S4,4.0,515,4
4,146,8,left,S3,2.0,575,4
4,147,6,right,S1,0.0,524,4
4,148,5,left,S4,4.0,479,4
4,149,3,right,S4,4.0,514,4
4,150,6,right,S1,0.0,488,4
4,151,3,left,S4,4.0,484,4
4,152,6,left,S1,0.0,657,4
4,153,2,right,S2,4.0,695,4
4,154,7,left,S2,4.0,420,4
4,155,9,right,S4,4.0,511,4
4,156,3,left,S4,4.0,677,4
4,157,1,right,S2,4.0,680,4
4,158,2,right,S2,0.0,518,4
4,159,9,right,S4,4.0,436,4
4,160,9,left,S4,4.0,483,4
4,161,9,left,S4,4.0,422,4
4,162,5,left,S4,4.0,473,4
4,163,7,left,S2,4.0,844,4
4,164,1,right,S2,0.0,470,4
4,165,7,right,S2,0.0,657,4
4,166,9,right,S4,4.0,680,4
4,167,8,left,S3,2.0,473,4
4,168,3,right,S4,4.0,469,4
4,169,2,right,S2,0.0,873,4
4,170,9,right,S4,4.0,675,4
4,171,9,right,S4,4.0,403,4
4,172,4,right,S3,2.0,718,4
4,173,6,right,S1,0.0,997,4
4,174,1,right,S2,4.0,899,4
4,175,4,right,S3,2.0,1027,4
4,176,4,right,S3,2.0,546,4
5,1,8,left,wrongside,,403,4
5,2,7,right,S2,0.0,382,4
5,3,1,left,S1,0.0,631,4
5,4,8,left,S3,2.0,477,4
5,5,9,right,S4,4.0,342,4
5,6,7,left,S2,0.0,376,4
5,7,2,left,S2,4.0,421,4
5,8,5,left,S4,4.0,304,4
5,9,6,right,S1,0.0,709,4
5,10,9,left,S4,4.0,387,4
5,11,3,left,S2,4.0,351,4
5,12,6,left,S1,0.0,335,4
5,13,1,left,S1,0.0,340,4
5,14,7,left,S2,0.0,349,4
5,15,2,right,S2,4.0,415,4
5,16,5,left,S3,2.0,473,4
5,17,6,left,S1,0.0,336,4
5,18,3,right,S4,4.0,302,4
5,19,7,left,S2,0.0,382,4
5,20,4,right,S1,0.0,268,4
5,21,8,left,S3,2.0,277,4
5,22,9,right,S4,4.0,404,4
5,23,8,left,S3,2.0,280,4
5,24,6,right,S1,0.0,351,4
5,25,4,left,S3,2.0,284,4
5,26,9,left,S4,4.0,268,4
5,27,3,left,S2,4.0,270,4
5,28,6,right,S1,0.0,337,4
5,29,5,left,S4,4.0,423,4
5,30,7,right,S2,0.0,360,4
5,31,8,left,S3,2.0,349,4
5,32,1,left,S1,0.0,449,4
5,33,4,left,S3,2.0,323,4
5,34,2,left,S3,2.0,394,4
5,35,1,left,S1,0.0,336,4
5,36,8,right,S3,2.0,349,4
5,37,7,left,S2,0.0,260,4
5,38,9,right,S4,4.0,302,4
5,39,1,left,S2,0.0,485,4
5,40,2,left,S3,2.0,444,4
5,41,6,left,S1,0.0,359,4
5,42,2,left,S2,4.0,264,4
5,43,3,left,S2,4.0,267,4
5,44,1,left,S1,0.0,267,4
5,45,9,right,S4,4.0,310,4
5,46,7,left,S2,0.0,295,4
5,47,5,left,S4,4.0,370,4
5,48,1,left,S1,0.0,321,4
5,49,7,left,S2,4.0,281,4
5,50,8,left,S3,2.0,493,4
5,51,5,left,S4,4.0,941,4
5,52,3,left,S2,4.0,671,4
5,53,3,left,S4,4.0,414,4
5,54,2,left,S2,0.0,215,4
5,55,3,left,S4,4.0,631,4
5,56,3,left,S4,4.0,431,4
5,57,7,left,S2,4.0,322,4
5,58,7,left,wrongside,,1237,4
5,59,5,left,S4,4.0,337,4
5,60,1,left,S1,0.0,433,4
5,61,2,left,S2,4.0,2009,4
5,62,1,left,S1,0.0,272,4
5,63,3,left,S4,4.0,303,4
5,64,4,left,S3,2.0,333,4
5,65,5,left,S3,2.0,595,4
5,66,2,left,S2,4.0,380,4
5,67,3,left,S2,0.0,358,4
5,68,6,right,S1,0.0,327,4
5,69,4,left,S3,2.0,292,4
5,70,2,left,S2,0.0,288,4
5,71,2,left,S3,2.0,309,4
5,72,6,left,S1,0.0,343,4
5,73,2,left,S3,2.0,269,4
5,74,2,left,S3,2.0,322,4
5,75,5,left,S3,2.0,293,4
5,76,4,left,S1,0.0,354,4
5,77,5,left,S4,4.0,284,4
5,78,2,left,S3,2.0,319,4
5,79,4,left,S1,0.0,312,4
5,80,5,left,S4,4.0,267,4
5,81,6,left,S1,0.0,396,4
5,82,8,right,S3,2.0,311,4
5,83,2,left,S2,0.0,348,4
5,84,2,left,S3,2.0,246,4
5,85,3,left,S2,4.0,290,4
5,86,1,left,S1,0.0,309,4
5,87,1,left,S2,4.0,256,4
5,88,5,left,S3,2.0,321,4
5,89,8,left,S3,2.0,243,4
5,90,9,left,S4,4.0,277,4
5,91,1,left,S2,4.0,248,4
5,92,3,left,S4,4.0,373,4
5,93,4,left,S1,0.0,285,4
5,94,5,left,S4,4.0,255,4
5,95,7,right,S2,0.0,421,4
5,96,9,right,S4,4.0,664,4
5,97,4,left,S3,2.0,369,4
5,98,2,left,S2,4.0,393,4
5,99,5,left,S3,2.0,343,4
5,100,6,right,S1,0.0,371,4
5,101,5,left,S4,4.0,270,4
5,102,9,left,S4,4.0,325,4
5,103,4,left,S3,2.0,276,4
5,104,6,left,S1,0.0,322,4
5,105,5,left,S3,2.0,402,4
5,106,6,left,S1,0.0,264,4
5,107,6,right,S1,0.0,315,4
5,108,2,left,S2,4.0,609,4
5,109,9,left,S4,4.0,373,4
5,110,6,right,S1,0.0,427,4
5,111,8,left,S3,2.0,317,4
5,112,1,left,S1,0.0,387,4
5,113,1,left,S2,0.0,439,4
5,114,2,left,S3,2.0,386,4
5,115,7,left,S2,0.0,324,4
5,116,4,left,S1,0.0,409,4
5,117,2,left,S3,2.0,422,4
5,118,5,left,S3,2.0,334,4
5,119,2,left,S3,2.0,314,4
5,120,3,left,S2,0.0,1050,4
5,121,2,left,S2,0.0,254,4
5,122,2,left,S2,0.0,292,4
5,123,8,left,S3,2.0,228,4
5,124,4,left,S1,0.0,408,4
5,125,8,right,S3,2.0,481,4
5,126,2,left,S3,2.0,245,4
5,127,1,left,S2,0.0,482,4
5,128,2,left,S3,2.0,323,4
5,129,4,left,S3,2.0,255,4
5,130,2,left,S3,2.0,223,4
5,131,7,right,S2,4.0,396,4
5,132,2,left,S3,2.0,429,4
5,133,3,left,S2,4.0,434,4
5,134,8,right,S3,2.0,468,4
5,135,5,left,S4,4.0,522,4
5,136,3,left,S2,4.0,1222,4
5,137,2,left,S2,0.0,675,4
5,138,1,left,S1,0.0,230,4
5,139,7,right,S2,4.0,672,4
5,140,6,left,S1,0.0,301,4
5,141,9,right,S4,4.0,864,4
5,142,7,right,S2,0.0,439,4
5,143,1,left,S2,4.0,511,4
5,144,3,left,S2,4.0,401,4
5,145,3,left,S2,4.0,360,4
5,146,7,right,S2,0.0,380,4
5,147,3,left,S2,4.0,269,4
5,148,9,left,S4,4.0,448,4
5,149,9,right,S4,4.0,404,4
5,150,9,left,S4,4.0,280,4
5,151,9,right,S4,4.0,338,4
5,152,3,left,S2,0.0,260,4
5,153,3,left,S4,4.0,283,4
5,154,3,left,S4,4.0,453,4
5,155,8,right,S3,2.0,613,4
5,156,1,left,S1,0.0,335,4
5,157,1,left,S1,0.0,267,4
5,158,1,left,S2,0.0,419,4
5,159,2,left,S2,0.0,463,4
5,160,8,left,wrongside,,326,4
5,161,7,right,S2,4.0,429,4
5,162,1,left,S2,4.0,372,4
5,163,8,left,S3,2.0,1159,4
5,164,1,left,S1,0.0,916,4
5,165,2,left,S2,4.0,383,4
5,166,4,left,S3,2.0,293,4
5,167,9,left,S4,4.0,403,4
5,168,2,left,S2,0.0,470,4
5,169,6,right,S1,0.0,351,4
5,170,4,left,S3,2.0,455,4
5,171,7,left,S2,0.0,389,4
5,172,4,left,S3,2.0,235,4
5,173,3,left,S4,4.0,370,4
5,174,4,left,S3,2.0,601,4
5,175,2,left,S3,2.0,364,4
5,176,2,left,S3,2.0,351,4
6,1,9,right,S4,4.0,712,4
6,2,2,left,S2,4.0,600,4
6,3,3,right,S2,4.0,486,4
6,4,8,left,S3,2.0,396,4
6,5,9,right,S4,4.0,416,4
6,6,6,left,S1,0.0,381,4
6,7,7,right,S2,0.0,372,4
6,8,4,left,S3,2.0,403,4
6,9,8,right,S3,2.0,397,4
6,10,8,left,S3,2.0,341,4
6,11,6,left,S1,0.0,405,4
6,12,4,left,S3,2.0,619,4
6,13,1,left,S1,0.0,681,4
6,14,5,left,S4,4.0,627,4
6,15,6,left,S1,0.0,507,4
6,16,9,left,S4,4.0,439,4
6,17,5,right,S4,4.0,656,4
6,18,8,left,S3,2.0,512,4
6,19,7,left,S2,4.0,444,4
6,20,6,right,S1,0.0,411,4
6,21,7,left,S2,0.0,643,4
6,22,7,left,S2,4.0,660,4
6,23,3,left,S2,0.0,656,4
6,24,9,right,S4,4.0,471,4
6,25,2,left,S2,0.0,753,4
6,26,1,left,S2,0.0,537,4
6,27,8,left,S3,2.0,458,4
6,28,6,left,S1,0.0,401,4
6,29,2,left,S2,4.0,716,4
6,30,1,left,S2,0.0,762,4
6,31,7,left,S2,0.0,419,4
6,32,8,right,wrongside,,572,4
6,33,1,left,S2,4.0,543,4
6,34,1,left,S2,0.0,477,4
6,35,4,right,S3,2.0,502,4
6,36,3,left,S4,4.0,543,4
6,37,7,right,S2,4.0,532,4
6,38,9,left,S4,4.0,389,4
6,39,6,left,S1,0.0,704,4
6,40,2,left,S3,2.0,696,4
6,41,2,left,S2,4.0,610,4
6,42,3,left,S4,4.0,613,4
6,43,6,left,wrongside,,630,4
6,44,2,right,S2,4.0,705,4
6,45,5,right,S4,4.0,643,4
6,46,7,right,S2,0.0,459,4
6,47,1,left,S2,0.0,556,4
6,48,9,left,S4,4.0,390,4
6,49,8,right,S3,2.0,364,4
6,50,5,left,S4,4.0,550,4
6,51,6,right,S1,0.0,409,4
6,52,3,left,S2,4.0,502,4
6,53,9,left,S4,4.0,370,4
6,54,4,left,S3,2.0,747,4
6,55,2,left,S2,0.0,1183,4
6,56,3,left,S4,4.0,553,4
6,57,2,left,S2,0.0,716,4
6,58,3,right,S4,4.0,619,4
6,59,3,right,S4,4.0,422,4
6,60,2,left,S2,4.0,579,4
6,61,1,right,S2,4.0,541,4
6,62,2,right,S2,0.0,508,4
6,63,4,right,S3,2.0,550,4
6,64,2,left,S2,4.0,486,4
6,65,7,left,S2,0.0,366,4
6,66,2,right,S2,0.0,455,4
6,67,9,right,S4,4.0,465,4
6,68,2,right,S2,4.0,697,4
6,69,1,left,S2,0.0,531,4
6,70,3,right,S4,4.0,522,4
6,71,7,left,S2,4.0,373,4
6,72,2,right,S2,4.0,506,4
6,73,1,left,S2,0.0,539,4
6,74,2,left,S2,4.0,520,4
6,75,3,right,S4,4.0,604,4
6,76,3,left,S4,4.0,706,4
6,77,2,left,S2,4.0,502,4
6,78,3,left,S4,4.0,505,4
6,79,2,left,S2,0.0,691,4
6,80,5,left,S4,4.0,475,4
6,81,1,right,S2,0.0,510,4
6,82,5,left,S4,4.0,452,4
6,83,8,left,S3,2.0,455,4
6,84,1,left,S2,4.0,426,4
6,85,1,right,S2,0.0,389,4
6,86,4,right,S3,2.0,536,4
6,87,6,right,S1,0.0,454,4
6,88,1,right,S2,4.0,462,4
6,89,1,right,S2,4.0,359,4
6,90,6,right,S1,0.0,407,4
6,91,6,left,S1,0.0,317,4
6,92,1,left,S2,4.0,517,4
6,93,6,left,S1,0.0,381,4
6,94,8,right,S3,2.0,506,4
6,95,5,left,S4,4.0,524,4
6,96,6,left,S1,0.0,487,4
6,97,9,right,S4,4.0,369,4
6,98,9,left,S4,4.0,402,4
6,99,2,right,S2,0.0,688,4
6,100,5,left,S3,2.0,399,4
6,101,8,right,S3,2.0,412,4
6,102,4,left,S3,2.0,557,4
6,103,8,right,S3,2.0,365,4
6,104,8,right,S3,2.0,350,4
6,105,5,right,S4,4.0,483,4
6,106,4,left,S1,0.0,505,4
6,107,2,left,S2,0.0,571,4
6,108,5,left,S4,4.0,510,4
6,109,4,left,S3,2.0,530,4
6,110,8,right,S3,2.0,463,4
6,111,9,right,S4,4.0,431,4
6,112,6,right,S1,0.0,558,4
6,113,7,right,S2,0.0,435,4
6,114,1,left,S2,4.0,452,4
6,115,1,right,S2,0.0,422,4
6,116,3,left,S4,4.0,446,4
6,117,9,left,S4,4.0,345,4
6,118,2,left,S2,4.0,531,4
6,119,2,right,S2,4.0,437,4
6,120,4,left,S3,2.0,395,4
6,121,1,right,S2,0.0,442,4
6,122,3,right,S4,4.0,562,4
6,123,2,right,S2,4.0,558,4
6,124,1,right,S2,0.0,396,4
6,125,2,right,S3,2.0,551,4
6,126,3,right,S4,4.0,500,4
6,127,2,right,S2,4.0,454,4
6,128,9,right,S4,4.0,482,4
6,129,7,right,S2,0.0,363,4
6,130,7,left,S2,0.0,406,4
6,131,3,right,S2,4.0,421,4
6,132,9,right,S4,4.0,347,4
6,133,5,right,S4,4.0,490,4
6,134,3,right,S4,4.0,408,4
6,135,5,left,S4,4.0,444,4
6,136,4,right,S3,2.0,498,4
6,137,6,left,S1,0.0,740,4
6,138,2,left,S3,2.0,478,4
6,139,6,left,S1,0.0,602,4
6,140,4,right,S3,2.0,509,4
6,141,3,right,S2,0.0,415,4
6,142,5,left,S4,4.0,545,4
6,143,4,right,S3,2.0,553,4
6,144,2,left,S3,2.0,741,4
6,145,3,right,S4,4.0,513,4
6,146,4,left,S3,2.0,532,4
6,147,7,left,S2,0.0,390,4
6,148,3,left,S4,4.0,500,4
6,149,7,right,S2,0.0,399,4
6,150,2,left,S3,2.0,569,4
6,151,8,left,S3,2.0,394,4
6,152,2,left,S2,0.0,602,4
6,153,2,left,S2,4.0,515,4
6,154,3,left,S4,4.0,551,4
6,155,9,right,S4,4.0,342,4
6,156,5,right,S4,4.0,416,4
6,157,7,left,S2,4.0,492,4
6,158,1,left,S2,4.0,495,4
6,159,9,left,S4,4.0,363,4
6,160,5,right,S4,4.0,455,4
6,161,4,left,S1,0.0,519,4
6,162,7,right,S2,4.0,441,4
6,163,3,right,S4,4.0,446,4
6,164,8,right,S3,2.0,372,4
6,165,2,left,S3,2.0,734,4
6,166,7,left,S2,4.0,427,4
6,167,1,right,S2,0.0,465,4
6,168,5,left,S4,4.0,487,4
6,169,5,right,S4,4.0,445,4
6,170,8,right,S3,2.0,439,4
6,171,1,left,S2,4.0,434,4
6,172,2,right,S2,4.0,716,4
6,173,7,left,S2,0.0,393,4
6,174,4,right,S3,2.0,510,4
6,175,4,right,S3,2.0,492,4
6,176,2,left,S2,0.0,460,4
7,1,7,right,S2,0.0,723,4
7,2,5,left,S3,2.0,887,4
7,3,7,left,S2,4.0,482,4
7,4,2,left,S3,2.0,652,4
7,5,8,left,S3,2.0,604,4
7,6,6,right,S1,0.0,558,4
7,7,9,left,wrongside,,718,4
7,8,9,right,S4,4.0,870,4
7,9,8,left,S3,2.0,564,4
7,10,5,left,S3,2.0,678,4
7,11,2,left,S2,4.0,817,4
7,12,6,right,S1,0.0,624,4
7,13,1,left,S2,4.0,654,4
7,14,8,right,S3,2.0,612,4
7,15,4,right,S3,2.0,725,4
7,16,7,right,S2,0.0,829,4
7,17,6,right,S1,0.0,480,4
7,18,9,right,S4,4.0,507,4
7,19,3,left,S2,4.0,828,4
7,20,4,left,S3,2.0,883,4
7,21,1,left,S2,0.0,608,4
7,22,8,left,S3,2.0,483,4
7,23,3,right,S2,0.0,626,4
7,24,7,left,S2,0.0,492,4
7,25,9,left,S4,4.0,478,4
7,26,6,right,S1,0.0,516,4
7,27,2,right,S2,4.0,711,4
7,28,3,left,S2,0.0,492,4
7,29,9,right,S4,4.0,464,4
7,30,4,left,S3,2.0,632,4
7,31,3,left,S4,4.0,1152,4
7,32,9,left,S4,4.0,595,4
7,33,4,left,S1,0.0,918,4
7,34,8,right,S3,2.0,539,4
7,35,4,left,S3,2.0,728,4
7,36,4,right,S3,2.0,618,4
7,37,9,right,S4,4.0,747,4
7,38,9,right,S4,4.0,494,4
7,39,4,right,S3,2.0,693,4
7,40,4,right,S3,2.0,610,4
7,41,9,left,S4,4.0,601,4
7,42,4,left,S3,2.0,610,4
7,43,8,left,S3,2.0,517,4
7,44,1,left,S2,0.0,548,4
7,45,5,right,S3,2.0,828,4
7,46,3,left,S2,4.0,546,4
7,47,5,left,S3,2.0,731,4
7,48,2,right,S2,4.0,734,4
7,49,1,left,S2,0.0,537,4
7,50,5,right,S4,4.0,664,4
7,51,8,right,S3,2.0,614,4
7,52,8,right,S3,2.0,502,4
7,53,7,left,S2,4.0,481,4
7,54,8,left,S3,2.0,595,4
7,55,5,right,S4,4.0,657,4
7,56,3,left,S2,0.0,561,4
7,57,3,right,S2,4.0,820,4
7,58,2,right,S3,2.0,639,4
7,59,3,left,S2,0.0,620,4
7,60,9,left,S4,4.0,611,4
7,61,8,left,S3,2.0,583,4
7,62,7,right,S2,4.0,604,4
7,63,7,left,S2,0.0,567,4
7,64,1,left,S2,4.0,476,4
7,65,4,left,S3,2.0,815,4
7,66,1,left,S1,0.0,872,4
7,67,2,right,S3,2.0,680,4
7,68,6,right,S1,0.0,525,4
7,69,2,right,S3,2.0,1099,4
7,70,6,left,S1,0.0,543,4
7,71,6,left,S1,0.0,695,4
7,72,9,left,S4,4.0,498,4
7,73,4,left,S3,2.0,871,4
7,74,5,left,S4,4.0,739,4
7,75,2,right,S2,0.0,945,4
7,76,8,left,S3,2.0,590,4
7,77,2,right,S3,2.0,719,4
7,78,5,left,S4,4.0,832,4
7,79,1,left,S2,4.0,827,4
7,80,9,right,S4,4.0,531,4
7,81,7,right,S2,4.0,577,4
7,82,7,right,S2,4.0,490,4
7,83,5,right,S4,4.0,782,4
7,84,6,left,S1,0.0,561,4
7,85,9,left,S4,4.0,461,4
7,86,2,right,S2,0.0,769,4
7,87,3,left,S4,4.0,910,4
7,88,1,right,S2,4.0,575,4
7,89,5,left,S4,4.0,676,4
7,90,1,right,S2,4.0,584,4
7,91,9,left,S4,4.0,622,4
7,92,2,left,S3,2.0,981,4
7,93,2,left,S2,0.0,1040,4
7,94,2,right,S2,0.0,1303,4
7,95,7,right,S2,0.0,474,4
7,96,5,left,S4,4.0,1010,4
7,97,1,left,S2,4.0,771,4
7,98,1,left,S2,4.0,562,4
7,99,7,left,S2,4.0,491,4
7,100,2,left,S2,0.0,617,4
7,101,1,left,S2,4.0,627,4
7,102,3,right,S2,0.0,622,4
7,103,7,left,S2,0.0,508,4
7,104,7,right,S2,0.0,673,4
7,105,1,right,S2,4.0,625,4
7,106,7,left,S2,0.0,555,4
7,107,2,right,S2,4.0,571,4
7,108,5,left,S4,4.0,842,4
7,109,3,right,S4,4.0,760,4
7,110,6,left,S1,0.0,560,4
7,111,1,left,S2,0.0,942,4
7,112,1,left,S2,4.0,684,4
7,113,2,right,S2,0.0,633,4
7,114,3,right,S4,4.0,665,4
7,115,6,left,S1,0.0,531,4
7,116,4,right,S3,2.0,666,4
7,117,1,left,S2,4.0,600,4
7,118,3,left,S4,4.0,975,4
7,119,5,right,S4,4.0,586,4
7,120,3,right,S4,4.0,558,4
7,121,2,left,S2,0.0,692,4
7,122,1,right,S2,0.0,598,4
7,123,3,left,S4,4.0,633,4
7,124,8,left,S3,2.0,549,4
7,125,9,right,S4,4.0,579,4
7,126,1,left,S2,0.0,681,4
7,127,2,left,S3,2.0,1114,4
7,128,2,right,S3,2.0,507,4
7,129,5,right,S4,4.0,755,4
7,130,3,right,S4,4.0,690,4
7,131,2,right,S3,2.0,537,4
7,132,3,right,S4,4.0,713,4
7,133,2,left,S3,2.0,737,4
7,134,2,right,S3,2.0,578,4
7,135,4,right,S3,2.0,595,4
7,136,5,left,S4,4.0,539,4
7,137,2,left,S3,2.0,718,4
7,138,2,right,S3,2.0,737,4
7,139,7,right,S2,4.0,584,4
7,140,6,left,S1,0.0,555,4
7,141,3,right,S4,4.0,790,4
7,142,4,right,S3,2.0,665,4
7,143,2,left,S2,0.0,1243,4
7,144,8,left,S3,2.0,551,4
7,145,3,right,S4,4.0,606,4
7,146,3,right,S4,4.0,603,4
7,147,8,right,S3,2.0,571,4
7,148,7,left,S2,4.0,530,4
7,149,6,right,S1,0.0,540,4
7,150,2,right,S3,2.0,757,4
7,151,2,right,S2,4.0,1344,4
7,152,1,right,S2,0.0,594,4
7,153,1,left,S1,0.0,761,4
7,154,6,right,S1,0.0,501,4
7,155,5,left,S4,4.0,697,4
7,156,1,left,S2,4.0,699,4
7,157,2,right,S2,0.0,1031,4
7,158,2,left,S3,2.0,1300,4
7,159,5,right,S4,4.0,710,4
7,160,2,left,S3,2.0,755,4
7,161,2,left,S3,2.0,677,4
7,162,4,left,S3,2.0,1567,4
7,163,8,right,S3,2.0,518,4
7,164,9,left,S4,4.0,466,4
7,165,6,left,S1,0.0,492,4
7,166,3,left,S4,4.0,662,4
7,167,7,right,S2,4.0,494,4
7,168,4,left,S3,2.0,647,4
7,169,2,left,S3,2.0,714,4
7,170,6,left,S1,0.0,555,4
7,171,7,left,S2,0.0,581,4
7,172,4,left,S3,2.0,675,4
7,173,1,right,S1,0.0,767,4
7,174,6,right,S1,0.0,2313,4
7,175,3,right,S4,4.0,720,4
7,176,8,left,S3,2.0,894,4
8,1,4,left,S1,0.0,949,4
8,2,5,left,S3,2.0,494,4
8,3,8,right,S3,2.0,375,4
8,4,6,left,S1,0.0,342,4
8,5,9,right,S4,4.0,338,4
8,6,1,left,S2,4.0,401,4
8,7,2,left,S2,4.0,462,4
8,8,3,left,S4,4.0,343,4
8,9,9,left,S4,4.0,275,4
8,10,7,left,S2,0.0,259,4
8,11,9,right,S4,4.0,324,4
8,12,9,right,S4,4.0,334,4
8,13,8,right,S3,2.0,335,4
8,14,3,left,S2,0.0,360,4
8,15,1,left,S1,0.0,322,4
8,16,8,right,S3,2.0,407,4
8,17,6,left,S1,0.0,541,4
8,18,2,right,S2,4.0,361,4
8,19,7,right,S2,0.0,327,4
8,20,7,left,S2,0.0,328,4
8,21,6,left,S1,0.0,389,4
8,22,8,right,S3,2.0,326,4
8,23,6,left,S1,0.0,325,4
8,24,5,right,S4,4.0,410,4
8,25,7,right,S2,4.0,321,4
8,26,4,left,S1,0.0,443,4
8,27,1,right,S1,0.0,445,4
8,28,5,left,S3,2.0,311,4
8,29,4,right,S3,2.0,420,4
8,30,3,left,S2,0.0,351,4
8,31,5,right,S4,4.0,344,4
8,32,8,right,S3,2.0,291,4
8,33,1,right,S2,0.0,366,4
8,34,6,left,S1,0.0,487,4
8,35,1,right,S1,0.0,265,4
8,36,7,left,S2,4.0,354,4
8,37,5,left,S4,4.0,469,4
8,38,7,left,S2,4.0,321,4
8,39,5,left,S3,2.0,421,4
8,40,2,right,S2,0.0,350,4
8,41,3,right,S2,4.0,341,4
8,42,5,right,S3,2.0,260,4
8,43,2,right,S2,0.0,448,4
8,44,5,left,S4,4.0,377,4
8,45,9,right,S4,4.0,680,4
8,46,6,right,S1,0.0,320,4
8,47,8,right,S3,2.0,273,4
8,48,5,right,S3,2.0,561,4
8,49,2,right,S3,2.0,487,4
8,50,8,left,S3,2.0,974,4
8,51,3,right,S2,4.0,379,4
8,52,8,right,S3,2.0,1189,4
8,53,5,right,S3,2.0,726,4
8,54,3,right,S4,4.0,352,4
8,55,8,left,S3,2.0,669,4
8,56,2,left,S2,0.0,409,4
8,57,4,left,S1,0.0,314,4
8,58,2,left,S2,4.0,282,4
8,59,9,right,S4,4.0,369,4
8,60,5,left,S4,4.0,393,4
8,61,3,left,S4,4.0,534,4
8,62,2,left,S3,2.0,487,4
8,63,2,left,S3,2.0,384,4
8,64,9,right,S4,4.0,503,4
8,65,3,right,S4,4.0,377,4
8,66,6,left,S1,0.0,370,4
8,67,2,right,S3,2.0,324,4
8,68,4,right,S1,0.0,299,4
8,69,5,right,S3,2.0,437,4
8,70,7,right,S2,0.0,675,4
8,71,3,right,S2,0.0,619,4
8,72,6,right,S1,0.0,277,4
8,73,2,left,S3,2.0,399,4
8,74,4,left,S3,2.0,290,4
8,75,3,left,S2,4.0,537,4
8,76,2,left,S3,2.0,292,4
8,77,2,left,S3,2.0,834,4
8,78,3,left,S2,0.0,264,4
8,79,3,left,S4,4.0,455,4
8,80,2,left,S2,4.0,459,4
8,81,9,left,S4,4.0,324,4
8,82,7,left,S2,4.0,500,4
8,83,9,left,S4,4.0,771,4
8,84,9,left,wrongside,,1915,4
8,85,2,left,S2,0.0,823,4
8,86,2,right,S2,0.0,326,4
8,87,9,right,S4,4.0,449,4
8,88,7,right,S2,4.0,436,4
8,89,8,left,S3,2.0,443,4
8,90,2,left,S3,2.0,1322,4
8,91,6,right,S1,0.0,464,4
8,92,9,left,S4,4.0,297,4
8,93,2,left,S2,4.0,658,4
8,94,2,right,S3,2.0,610,4
8,95,4,right,S1,0.0,426,4
8,96,6,left,S1,0.0,557,4
8,97,1,right,S2,0.0,382,4
8,98,1,right,S2,4.0,284,4
8,99,1,right,S1,0.0,1023,4
8,100,3,left,S4,4.0,69,4
8,101,4,right,S1,0.0,1006,4
8,102,7,left,S2,0.0,1003,4
8,103,1,right,S1,0.0,369,4
8,104,1,left,S2,4.0,940,4
8,105,7,right,S2,0.0,461,4
8,106,2,right,S3,2.0,348,4
8,107,6,left,S1,0.0,760,4
8,108,2,right,S2,4.0,540,4
8,109,8,left,S3,2.0,589,4
8,110,4,right,S3,2.0,378,4
8,111,7,left,S2,4.0,411,4
8,112,4,left,S1,0.0,762,4
8,113,9,right,S4,4.0,654,4
8,114,2,right,S3,2.0,611,4
8,115,3,right,S4,4.0,630,4
8,116,1,right,S2,4.0,500,4
8,117,7,right,S2,0.0,605,4
8,118,5,right,S3,2.0,657,4
8,119,1,right,S2,0.0,1033,4
8,120,8,right,S3,2.0,370,4
8,121,4,right,S1,0.0,544,4
8,122,6,right,S1,0.0,327,4
8,123,7,right,S2,4.0,285,4
8,124,2,right,S3,2.0,522,4
8,125,8,left,S3,2.0,387,4
8,126,6,right,S1,0.0,409,4
8,127,1,left,S1,0.0,420,4
8,128,3,right,S4,4.0,404,4
8,129,4,right,S1,0.0,720,4
8,130,1,right,S2,0.0,522,4
8,131,1,right,S2,0.0,322,4
8,132,3,right,S4,4.0,602,4
8,133,1,right,S1,0.0,866,4
8,134,2,left,S3,2.0,636,4
8,135,3,left,S4,4.0,557,4
8,136,2,right,S3,2.0,722,4
8,137,5,right,S4,4.0,643,4
8,138,9,left,S4,4.0,428,4
8,139,2,left,S3,2.0,850,4
8,140,1,right,S1,0.0,568,4
8,141,9,right,S4,4.0,523,4
8,142,4,right,S3,2.0,835,4
8,143,2,left,S3,2.0,826,4
8,144,7,right,S2,4.0,810,4
8,145,1,left,S1,0.0,693,4
8,146,3,left,S4,4.0,484,4
8,147,1,left,S1,0.0,595,4
8,148,2,left,S3,2.0,538,4
8,149,4,right,S3,2.0,788,4
8,150,6,left,S1,0.0,475,4
8,151,8,left,S3,2.0,453,4
8,152,5,right,S4,4.0,589,4
8,153,5,left,S4,4.0,710,4
8,154,4,right,S3,2.0,609,4
8,155,7,right,S2,4.0,643,4
8,156,8,left,S3,2.0,566,4
8,157,6,right,S1,0.0,527,4
8,158,2,left,S3,2.0,675,4
8,159,3,right,S4,4.0,535,4
8,160,1,left,S2,4.0,822,4
8,161,8,left,S3,2.0,526,4
8,162,6,left,S1,0.0,600,4
8,163,1,right,S2,4.0,1432,4
8,164,5,right,S4,4.0,982,4
8,165,3,right,S4,4.0,544,4
8,166,7,right,S2,0.0,574,4
8,167,2,right,S3,2.0,624,4
8,168,2,right,S3,2.0,585,4
8,169,3,left,S4,4.0,511,4
8,170,2,right,S3,2.0,586,4
8,171,4,right,S1,0.0,593,4
8,172,1,left,S1,0.0,830,4
8,173,7,left,S2,0.0,588,4
8,174,9,right,S4,4.0,486,4
8,175,4,left,S3,2.0,901,4
8,176,3,right,S4,4.0,894,4
9,1,6,left,S1,0.0,1984,4
9,2,7,left,S2,4.0,607,4
9,3,9,right,S4,4.0,377,4
9,4,2,left,S3,2.0,520,4
9,5,8,left,S3,2.0,448,4
9,6,1,right,S1,0.0,534,4
9,7,9,left,S4,4.0,387,4
9,8,5,left,S3,2.0,492,4
9,9,3,right,S4,4.0,410,4
9,10,4,right,S1,0.0,683,4
9,11,8,right,S3,2.0,768,4
9,12,7,right,S2,4.0,359,4
9,13,3,left,S2,0.0,501,4
9,14,6,right,wrongside,,879,4
9,15,7,left,S2,0.0,335,4
9,16,4,right,S1,0.0,528,4
9,17,8,left,S3,2.0,425,4
9,18,2,left,S2,4.0,557,4
9,19,6,left,S1,0.0,369,4
9,20,8,left,S3,2.0,379,4
9,21,6,right,S1,0.0,441,4
9,22,9,right,S4,4.0,386,4
9,23,9,right,S4,4.0,375,4
9,24,5,left,S4,4.0,461,4
9,25,1,left,S2,4.0,567,4
9,26,7,right,S2,0.0,502,4
9,27,2,left,S3,2.0,362,4
9,28,5,left,S4,4.0,496,4
9,29,1,right,S2,0.0,623,4
9,30,5,left,S3,2.0,503,4
9,31,6,right,S1,0.0,452,4
9,32,7,right,S2,4.0,425,4
9,33,3,left,S2,4.0,361,4
9,34,8,left,S3,2.0,439,4
9,35,4,left,S3,2.0,351,4
9,36,7,left,S2,4.0,369,4
9,37,3,right,S2,4.0,463,4
9,38,8,left,wrongside,,545,4
9,39,4,right,S1,0.0,407,4
9,40,1,left,S1,0.0,364,4
9,41,2,right,S3,2.0,490,4
9,42,2,right,S3,2.0,450,4
9,43,7,left,S2,0.0,372,4
9,44,9,left,S4,4.0,361,4
9,45,2,left,S2,0.0,433,4
9,46,9,right,S4,4.0,392,4
9,47,1,right,S2,0.0,539,4
9,48,7,right,S2,0.0,338,4
9,49,5,left,S4,4.0,402,4
9,50,3,right,S2,4.0,445,4
9,51,2,left,S2,0.0,394,4
9,52,5,right,S3,2.0,358,4
9,53,6,right,S1,0.0,315,4
9,54,3,left,S2,0.0,454,4
9,55,4,right,S1,0.0,422,4
9,56,5,left,S3,2.0,401,4
9,57,2,left,S2,4.0,488,4
9,58,2,left,S3,2.0,633,4
9,59,2,right,S3,2.0,621,4
9,60,1,left,S2,0.0,699,4
9,61,3,right,S4,4.0,600,4
9,62,3,left,S4,4.0,423,4
9,63,4,right,S3,2.0,703,4
9,64,9,left,S4,4.0,370,4
9,65,4,left,S3,2.0,580,4
9,66,6,right,S1,0.0,407,4
9,67,5,left,S4,4.0,373,4
9,68,7,left,S2,0.0,417,4
9,69,1,right,S2,4.0,581,4
9,70,6,left,S1,0.0,361,4
9,71,2,right,S2,4.0,452,4
9,72,7,left,S2,4.0,319,4
9,73,6,right,S1,0.0,367,4
9,74,4,left,S3,2.0,564,4
9,75,2,left,S2,4.0,498,4
9,76,6,left,S1,0.0,359,4
9,77,4,right,S1,0.0,461,4
9,78,1,left,S2,0.0,416,4
9,79,4,right,S3,2.0,578,4
9,80,2,right,S2,4.0,491,4
9,81,2,right,S2,0.0,522,4
9,82,2,left,S2,0.0,467,4
9,83,1,right,S1,0.0,567,4
9,84,2,right,S3,2.0,566,4
9,85,4,right,S3,2.0,585,4
9,86,3,left,S2,4.0,449,4
9,87,3,right,S2,0.0,473,4
9,88,6,right,S1,0.0,858,4
9,89,2,left,S2,4.0,943,4
9,90,3,left,S2,0.0,500,4
9,91,6,left,S1,0.0,890,4
9,92,8,right,S3,2.0,438,4
9,93,9,right,S4,4.0,412,4
9,94,3,left,S2,0.0,538,4
9,95,5,right,S3,2.0,1152,4
9,96,6,left,S1,0.0,524,4
9,97,8,right,S3,2.0,371,4
9,98,4,left,S1,0.0,446,4
9,99,3,right,S4,4.0,558,4
9,100,9,right,S4,4.0,419,4
9,101,7,right,S2,4.0,505,4
9,102,3,right,S4,4.0,520,4
9,103,1,left,S2,4.0,851,4
9,104,3,right,S4,4.0,462,4
9,105,1,right,S1,0.0,609,4
9,106,7,left,S2,0.0,658,4
9,107,3,right,S4,4.0,666,4
9,108,2,right,S2,4.0,481,4
9,109,1,right,S2,0.0,625,4
9,110,1,right,S2,0.0,595,4
9,111,5,left,S4,4.0,532,4
9,112,9,left,S4,4.0,536,4
9,113,5,left,S3,2.0,770,4
9,114,7,left,S2,4.0,475,4
9,115,3,left,S4,4.0,663,4
9,116,2,left,S2,0.0,1043,4
9,117,6,left,S1,0.0,462,4
9,118,1,right,S1,0.0,533,4
9,119,5,left,S3,2.0,564,4
9,120,5,left,S4,4.0,449,4
9,121,7,left,S2,4.0,432,4
9,122,5,left,S4,4.0,509,4
9,123,2,right,S2,4.0,680,4
9,124,2,left,S2,0.0,545,4
9,125,2,right,S3,2.0,735,4
9,126,1,left,S2,0.0,737,4
9,127,5,left,S4,4.0,589,4
9,128,2,right,S2,4.0,702,4
9,129,3,right,S4,4.0,795,4
9,130,9,left,S4,4.0,468,4
9,131,2,right,S2,0.0,424,4
9,132,7,left,S2,4.0,444,4
9,133,5,left,S3,2.0,644,4
9,134,3,right,S4,4.0,762,4
9,135,2,right,S2,0.0,809,4
9,136,4,left,S3,2.0,698,4
9,137,1,right,S2,4.0,596,4
9,138,7,right,S2,4.0,571,4
9,139,5,right,S4,4.0,493,4
9,140,6,right,S1,0.0,579,4
9,141,9,left,S4,4.0,400,4
9,142,8,left,S3,2.0,437,4
9,143,3,left,S2,4.0,567,4
9,144,1,left,S2,0.0,687,4
9,145,2,right,S2,0.0,481,4
9,146,8,right,S3,2.0,613,4
9,147,8,left,S3,2.0,446,4
9,148,1,left,S2,0.0,737,4
9,149,9,right,S4,4.0,487,4
9,150,2,left,S2,4.0,363,4
9,151,3,right,S4,4.0,1048,4
9,152,4,left,S3,2.0,837,4
9,153,3,right,S4,4.0,733,4
9,154,2,right,S2,4.0,430,4
9,155,8,right,S3,2.0,527,4
9,156,2,left,S2,4.0,431,4
9,157,8,left,S3,2.0,447,4
9,158,8,right,S3,2.0,472,4
9,159,9,left,S4,4.0,429,4
9,160,7,left,S2,4.0,470,4
9,161,4,left,S3,2.0,645,4
9,162,2,left,S2,0.0,434,4
9,163,4,left,S3,2.0,622,4
9,164,9,right,S4,4.0,562,4
9,165,2,left,S2,0.0,610,4
9,166,2,left,S2,0.0,578,4
9,167,8,right,S3,2.0,475,4
9,168,1,right,S2,4.0,675,4
9,169,9,left,S4,4.0,405,4
9,170,1,right,S2,4.0,589,4
9,171,7,right,S2,0.0,432,4
9,172,6,right,S1,0.0,467,4
9,173,8,left,S3,2.0,646,4
9,174,1,left,S2,0.0,551,4
9,175,4,right,S3,2.0,776,4
9,176,1,right,S2,0.0,585,4
10,1,3,left,S4,4.0,1496,4
10,2,5,left,S4,4.0,558,4
10,3,9,right,S4,4.0,612,4
10,4,9,right,S4,4.0,532,4
10,5,1,left,S2,4.0,768,4
10,6,9,right,S4,4.0,583,4
10,7,2,right,S2,0.0,750,4
10,8,3,right,S4,4.0,909,4
10,9,5,left,S4,4.0,537,4
10,10,1,right,S2,0.0,729,4
10,11,6,left,S1,0.0,688,4
10,12,8,left,S3,2.0,937,4
10,13,4,right,S3,2.0,960,4
10,14,7,right,wrongside,,989,4
10,15,6,right,S1,0.0,654,4
10,16,8,right,S3,2.0,563,4
10,17,8,right,S3,2.0,537,4
10,18,9,right,S4,4.0,555,4
10,19,4,left,S3,2.0,483,4
10,20,2,right,S3,2.0,499,4
10,21,8,left,S3,2.0,506,4
10,22,6,left,S1,0.0,775,4
10,23,7,right,S2,0.0,498,4
10,24,7,left,S2,4.0,371,4
10,25,7,right,S2,4.0,557,4
10,26,6,right,S1,0.0,446,4
10,27,4,right,S3,2.0,474,4
10,28,7,right,S2,0.0,477,4
10,29,7,right,S2,4.0,554,4
10,30,5,left,S4,4.0,579,4
10,31,8,right,S3,2.0,430,4
10,32,5,left,S3,2.0,439,4
10,33,3,right,S4,4.0,469,4
10,34,5,left,S4,4.0,465,4
10,35,3,right,S4,4.0,445,4
10,36,6,right,S1,0.0,431,4
10,37,1,left,S2,0.0,476,4
10,38,3,right,S4,4.0,478,4
10,39,2,right,S2,0.0,548,4
10,40,2,left,S3,2.0,676,4
10,41,9,right,S4,4.0,590,4
10,42,4,right,S3,2.0,425,4
10,43,1,left,S2,4.0,453,4
10,44,7,left,S2,4.0,462,4
10,45,1,right,S2,4.0,548,4
10,46,2,right,S2,4.0,438,4
10,47,2,left,S2,0.0,644,4
10,48,6,right,S1,0.0,496,4
10,49,7,left,S2,0.0,487,4
10,50,5,right,S4,4.0,622,4
10,51,9,left,S4,4.0,471,4
10,52,1,left,S2,4.0,489,4
10,53,4,left,S3,2.0,510,4
10,54,4,right,S3,2.0,491,4
10,55,1,left,S2,4.0,439,4
10,56,9,right,S4,4.0,513,4
10,57,2,left,S3,2.0,448,4
10,58,2,left,S3,2.0,583,4
10,59,6,left,S1,0.0,892,4
10,60,6,right,S1,0.0,438,4
10,61,8,right,S3,2.0,504,4
10,62,2,left,S2,4.0,589,4
10,63,4,right,S3,2.0,486,4
10,64,9,left,S4,4.0,477,4
10,65,1,left,S2,0.0,457,4
10,66,2,left,S2,0.0,734,4
10,67,3,left,S2,0.0,580,4
10,68,5,right,S4,4.0,478,4
10,69,3,left,S4,4.0,531,4
10,70,5,right,S4,4.0,474,4
10,71,3,left,S4,4.0,536,4
10,72,3,left,S4,4.0,546,4
10,73,8,right,S3,2.0,554,4
10,74,5,left,S4,4.0,426,4
10,75,4,left,S3,2.0,462,4
10,76,6,right,S1,0.0,497,4
10,77,8,left,S3,2.0,369,4
10,78,5,right,S4,4.0,488,4
10,79,1,left,S1,0.0,385,4
10,80,4,right,S3,2.0,661,4
10,81,1,right,S2,4.0,454,4
10,82,1,left,S2,0.0,414,4
10,83,6,right,S1,0.0,421,4
10,84,2,left,S3,2.0,691,4
10,85,9,right,S4,4.0,484,4
10,86,2,left,S2,4.0,638,4
10,87,2,right,S2,0.0,501,4
10,88,4,left,S3,2.0,474,4
10,89,4,right,S3,2.0,463,4
10,90,2,left,S2,0.0,517,4
10,91,8,right,S3,2.0,566,4
10,92,9,right,S4,4.0,503,4
10,93,5,right,S4,4.0,453,4
10,94,1,left,S2,4.0,585,4
10,95,6,left,S1,0.0,561,4
10,96,1,right,S2,0.0,443,4
10,97,8,left,S3,2.0,407,4
10,98,3,right,S2,4.0,444,4
10,99,3,right,S4,4.0,497,4
10,100,3,left,S4,4.0,464,4
10,101,2,right,S3,2.0,474,4
10,102,1,left,S2,4.0,574,4
10,103,4,left,S3,2.0,502,4
10,104,8,right,S3,2.0,494,4
10,105,2,left,S2,0.0,507,4
10,106,3,left,S4,4.0,580,4
10,107,7,right,S2,4.0,575,4
10,108,6,left,S1,0.0,490,4
10,109,3,left,S4,4.0,580,4
10,110,1,right,S2,4.0,495,4
10,111,9,right,S4,4.0,461,4
10,112,2,left,S3,2.0,354,4
10,113,7,right,S2,0.0,381,4
10,114,8,right,S3,2.0,486,4
10,115,9,right,S4,4.0,473,4
10,116,4,left,S1,0.0,677,4
10,117,4,right,S3,2.0,441,4
10,118,5,right,S4,4.0,485,4
10,119,3,left,S4,4.0,488,4
10,120,8,left,S3,2.0,462,4
10,121,7,right,S2,0.0,504,4
10,122,1,right,S2,4.0,516,4
10,123,5,right,S4,4.0,621,4
10,124,6,left,wrongside,,700,4
10,125,2,right,S2,4.0,585,4
10,126,1,right,S2,0.0,470,4
10,127,4,right,S3,2.0,474,4
10,128,3,right,S4,4.0,709,4
10,129,2,right,S3,2.0,682,4
10,130,2,left,S2,0.0,526,4
10,131,9,left,S4,4.0,492,4
10,132,1,right,S2,4.0,440,4
10,133,2,right,S3,2.0,496,4
10,134,2,right,S2,0.0,605,4
10,135,3,left,S4,4.0,546,4
10,136,6,right,wrongside,,753,4
10,137,5,right,S4,4.0,554,4
10,138,2,left,S2,4.0,526,4
10,139,7,left,S2,0.0,504,4
10,140,7,left,S2,4.0,534,4
10,141,9,right,S4,4.0,547,4
10,142,6,left,S1,0.0,1097,4
10,143,6,right,S1,0.0,447,4
10,144,2,left,S2,0.0,659,4
10,145,2,right,S2,0.0,531,4
10,146,7,left,S2,4.0,430,4
10,147,2,right,S3,2.0,600,4
10,148,5,left,S4,4.0,748,4
10,149,7,left,S2,4.0,436,4
10,150,8,left,S3,2.0,465,4
10,151,2,right,S3,2.0,837,4
10,152,7,left,S2,4.0,450,4
10,153,2,right,S2,0.0,522,4
10,154,4,left,S3,2.0,455,4
10,155,5,right,S4,4.0,632,4
10,156,7,left,S2,0.0,458,4
10,157,9,left,S4,4.0,429,4
10,158,2,right,S2,4.0,520,4
10,159,2,left,S2,0.0,575,4
10,160,1,left,S2,4.0,473,4
10,161,2,right,S2,0.0,662,4
10,162,3,left,S4,4.0,696,4
10,163,8,left,S3,2.0,580,4
10,164,5,left,S4,4.0,598,4
10,165,4,right,S3,2.0,599,4
10,166,3,left,S4,4.0,694,4
10,167,1,right,S2,0.0,505,4
10,168,9,right,S4,4.0,479,4
10,169,3,right,S4,4.0,700,4
10,170,1,right,S2,4.0,582,4
10,171,3,left,S4,4.0,552,4
10,172,1,left,S2,4.0,481,4
10,173,3,right,S4,4.0,588,4
10,174,8,right,S3,2.0,547,4
10,175,7,left,S2,4.0,454,4
10,176,2,right,S3,2.0,733,4
11,1,4,left,S3,2.0,548,4
11,2,9,left,S4,4.0,575,4
11,3,4,right,S1,0.0,793,4
11,4,2,left,S2,4.0,560,4
11,5,9,left,S4,4.0,433,4
11,6,7,right,S2,0.0,565,4
11,7,5,left,S3,2.0,433,4
11,8,6,right,S1,0.0,555,4
11,9,1,left,S2,4.0,452,4
11,10,7,right,S2,4.0,513,4
11,11,9,right,S4,4.0,430,4
11,12,3,left,S2,0.0,501,4
11,13,8,right,S3,2.0,337,4
11,14,6,right,S1,0.0,595,4
11,15,7,right,S2,0.0,437,4
11,16,2,left,S2,4.0,546,4
11,17,1,left,S1,0.0,437,4
11,18,7,right,S2,0.0,410,4
11,19,5,left,S4,4.0,536,4
11,20,8,left,S3,2.0,454,4
11,21,9,left,S4,4.0,515,4
11,22,6,right,S1,0.0,399,4
11,23,6,left,S1,0.0,639,4
11,24,8,right,S3,2.0,385,4
11,25,8,right,S3,2.0,447,4
11,26,3,left,S2,4.0,521,4
11,27,2,left,S3,2.0,477,4
11,28,8,left,S3,2.0,379,4
11,29,3,left,S2,4.0,383,4
11,30,3,left,S4,4.0,607,4
11,31,7,right,S2,4.0,515,4
11,32,6,left,S1,0.0,387,4
11,33,9,right,S4,4.0,399,4
11,34,1,left,S2,4.0,494,4
11,35,4,left,S3,2.0,404,4
11,36,8,left,S3,2.0,372,4
11,37,2,left,S2,0.0,583,4
11,38,9,left,S4,4.0,372,4
11,39,1,left,S2,0.0,436,4
11,40,5,left,S3,2.0,605,4
11,41,8,right,S3,2.0,433,4
11,42,2,right,S2,0.0,396,4
11,43,1,left,S1,0.0,394,4
11,44,7,right,S2,0.0,873,4
11,45,8,left,S3,2.0,321,4
11,46,8,right,S3,2.0,386,4
11,47,3,left,S4,4.0,402,4
11,48,1,left,S1,0.0,357,4
11,49,9,right,S4,4.0,424,4
11,50,8,right,S3,2.0,374,4
11,51,3,left,S2,4.0,399,4
11,52,4,left,S1,0.0,382,4
11,53,5,left,S3,2.0,395,4
11,54,5,left,S3,2.0,444,4
11,55,3,left,S2,4.0,746,4
11,56,5,left,S3,2.0,391,4
11,57,3,left,S4,4.0,441,4
11,58,4,left,S1,0.0,353,4
11,59,1,left,S1,0.0,453,4
11,60,3,left,S4,4.0,422,4
11,61,8,left,S3,2.0,403,4
11,62,2,left,S3,2.0,395,4
11,63,2,left,S2,0.0,455,4
11,64,5,left,S3,2.0,402,4
11,65,5,left,S3,2.0,726,4
11,66,2,left,S3,2.0,345,4
11,67,7,left,S2,0.0,329,4
11,68,9,left,S4,4.0,317,4
11,69,1,left,S1,0.0,392,4
11,70,2,left,S3,2.0,502,4
11,71,2,left,S2,0.0,475,4
11,72,3,right,S2,4.0,369,4
11,73,2,right,S3,2.0,434,4
11,74,6,right,S1,0.0,406,4
11,75,9,left,S4,4.0,436,4
11,76,2,right,S3,2.0,499,4
11,77,9,left,S4,4.0,420,4
11,78,6,left,S1,0.0,381,4
11,79,1,left,S1,0.0,443,4
11,80,6,right,S1,0.0,411,4
11,81,7,left,S2,0.0,433,4
11,82,5,right,S4,4.0,401,4
11,83,2,right,S3,2.0,406,4
11,84,1,right,S1,0.0,422,4
11,85,6,left,S1,0.0,552,4
11,86,6,right,S1,0.0,340,4
11,87,3,left,S2,4.0,493,4
11,88,4,left,S1,0.0,456,4
11,89,5,left,S4,4.0,433,4
11,90,4,left,S3,2.0,484,4
11,91,3,right,S2,0.0,581,4
11,92,2,left,S2,4.0,442,4
11,93,9,left,S4,4.0,380,4
11,94,7,left,S2,4.0,397,4
11,95,6,right,S1,0.0,839,4
11,96,4,left,S3,2.0,449,4
11,97,6,left,S1,0.0,400,4
11,98,1,right,S1,0.0,587,4
11,99,8,right,S3,2.0,385,4
11,100,1,left,S1,0.0,472,4
11,101,1,left,S2,4.0,483,4
11,102,4,right,S3,2.0,509,4
11,103,2,right,S3,2.0,612,4
11,104,2,left,S3,2.0,688,4
11,105,2,right,S3,2.0,588,4
11,106,7,left,S2,0.0,488,4
11,107,9,left,S4,4.0,530,4
11,108,1,left,S2,0.0,447,4
11,109,3,left,S4,4.0,416,4
11,110,9,left,S4,4.0,370,4
11,111,5,left,S4,4.0,512,4
11,112,6,left,S1,0.0,434,4
11,113,5,right,S4,4.0,498,4
11,114,1,left,S2,4.0,541,4
11,115,3,right,S4,4.0,554,4
11,116,5,right,S4,4.0,605,4
11,117,2,right,S3,2.0,453,4
11,118,2,left,S3,2.0,427,4
11,119,8,right,S3,2.0,381,4
11,120,8,right,S3,2.0,370,4
11,121,7,right,S2,0.0,392,4
11,122,4,left,S1,0.0,396,4
11,123,8,left,S3,2.0,392,4
11,124,2,right,S2,0.0,436,4
11,125,3,left,S4,4.0,473,4
11,126,4,left,S3,2.0,443,4
11,127,4,left,S3,2.0,341,4
11,128,9,left,S4,4.0,364,4
11,129,2,right,S3,2.0,604,4
11,130,7,right,S2,0.0,445,4
11,131,4,left,S3,2.0,378,4
11,132,4,left,S3,2.0,786,4
11,133,2,left,S3,2.0,450,4
11,134,4,left,S1,0.0,453,4
11,135,2,right,S2,0.0,491,4
11,136,1,right,S1,0.0,527,4
11,137,2,left,S3,2.0,475,4
11,138,3,left,S4,4.0,482,4
11,139,7,right,S2,4.0,429,4
11,140,2,right,S3,2.0,557,4
11,141,7,right,S2,4.0,404,4
11,142,5,left,S4,4.0,583,4
11,143,7,left,S2,4.0,479,4
11,144,2,left,S3,2.0,425,4
11,145,2,left,S3,2.0,393,4
11,146,6,left,S1,0.0,377,4
11,147,4,left,S3,2.0,469,4
11,148,3,left,S4,4.0,389,4
11,149,3,left,S2,4.0,539,4
11,150,1,left,S1,0.0,935,4
11,151,4,right,S3,2.0,611,4
11,152,6,right,S1,0.0,461,4
11,153,7,right,S2,0.0,403,4
11,154,7,left,S2,4.0,487,4
11,155,2,right,S2,0.0,516,4
11,156,5,left,S4,4.0,469,4
11,157,1,left,S2,0.0,529,4
11,158,9,right,S4,4.0,436,4
11,159,3,left,S2,4.0,515,4
11,160,5,left,S4,4.0,599,4
11,161,2,left,S3,2.0,467,4
11,162,1,left,S1,0.0,470,4
11,163,2,left,S2,0.0,635,4
11,164,1,left,S1,0.0,424,4
11,165,3,right,S4,4.0,512,4
11,166,2,left,S3,2.0,718,4
11,167,1,left,S1,0.0,443,4
11,168,1,left,S2,0.0,530,4
11,169,5,left,S3,2.0,714,4
11,170,3,left,S4,4.0,584,4
11,171,6,left,S1,0.0,401,4
11,172,8,left,S3,2.0,377,4
11,173,7,left,S2,4.0,417,4
11,174,3,left,S2,4.0,460,4
11,175,2,left,S3,2.0,371,4
11,176,9,left,S4,4.0,370,4
12,1,5,left,S4,4.0,548,4
12,2,8,left,S3,2.0,686,4
12,3,6,right,S1,0.0,535,4
12,4,9,right,S4,4.0,475,4
12,5,1,left,S2,4.0,574,4
12,6,7,left,S2,4.0,501,4
12,7,1,left,S2,0.0,475,4
12,8,7,left,S2,0.0,424,4
12,9,7,left,S2,0.0,532,4
12,10,9,left,S4,4.0,444,4
12,11,6,right,S1,0.0,597,4
12,12,9,left,S4,4.0,465,4
12,13,8,right,S3,2.0,477,4
12,14,2,left,S2,0.0,578,4
12,15,4,right,S3,2.0,563,4
12,16,2,right,S3,2.0,410,4
12,17,3,left,S2,4.0,468,4
12,18,8,left,S3,2.0,463,4
12,19,4,left,S1,0.0,465,4
12,20,7,left,S2,4.0,507,4
12,21,6,right,S1,0.0,455,4
12,22,9,right,S4,4.0,480,4
12,23,8,right,S3,2.0,410,4
12,24,5,right,S4,4.0,511,4
12,25,3,left,S4,4.0,500,4
12,26,6,left,S1,0.0,531,4
12,27,5,right,S4,4.0,490,4
12,28,1,right,S2,4.0,576,4
12,29,2,left,S3,2.0,560,4
12,30,1,right,S2,4.0,417,4
12,31,9,left,S4,4.0,443,4
12,32,4,right,S1,0.0,582,4
12,33,3,left,S4,4.0,599,4
12,34,4,left,S1,0.0,665,4
12,35,3,left,S4,4.0,553,4
12,36,7,right,S2,4.0,406,4
12,37,1,left,S2,0.0,506,4
12,38,1,left,S2,4.0,769,4
12,39,3,right,S4,4.0,539,4
12,40,3,right,S4,4.0,462,4
12,41,5,right,S4,4.0,373,4
12,42,7,right,S2,0.0,410,4
12,43,4,right,S3,2.0,512,4
12,44,4,right,S1,0.0,559,4
12,45,1,right,S2,0.0,598,4
12,46,2,right,S3,2.0,618,4
12,47,2,left,S2,0.0,520,4
12,48,4,left,S3,2.0,575,4
12,49,3,right,S4,4.0,478,4
12,50,2,right,S3,2.0,560,4
12,51,2,right,S2,0.0,619,4
12,52,3,right,S4,4.0,528,4
12,53,3,left,S4,4.0,492,4
12,54,4,left,S3,2.0,591,4
12,55,3,right,S4,4.0,470,4
12,56,7,right,S2,4.0,452,4
12,57,2,right,S2,4.0,509,4
12,58,3,right,S4,4.0,594,4
12,59,8,right,S3,2.0,585,4
12,60,2,right,S3,2.0,586,4
12,61,9,right,S4,4.0,383,4
12,62,1,left,S2,0.0,611,4
12,63,3,right,S4,4.0,442,4
12,64,7,left,S2,4.0,439,4
12,65,9,left,S4,4.0,419,4
12,66,8,left,S3,2.0,418,4
12,67,3,left,S4,4.0,502,4
12,68,1,left,S2,4.0,461,4
12,69,3,left,S4,4.0,558,4
12,70,3,left,S4,4.0,402,4
12,71,1,right,S2,0.0,455,4
12,72,9,left,S4,4.0,404,4
12,73,2,right,S3,2.0,741,4
12,74,9,right,S4,4.0,409,4
12,75,4,left,S3,2.0,480,4
12,76,1,right,S2,0.0,431,4
12,77,6,left,S1,0.0,432,4
12,78,1,right,S2,4.0,425,4
12,79,1,right,S2,4.0,570,4
12,80,2,left,S2,0.0,486,4
12,81,1,right,S2,0.0,535,4
12,82,5,right,S3,2.0,492,4
12,83,2,right,S2,0.0,453,4
12,84,4,right,S3,2.0,493,4
12,85,5,right,S4,4.0,481,4
12,86,4,right,S3,2.0,537,4
12,87,8,right,S3,2.0,422,4
12,88,2,right,S3,2.0,510,4
12,89,2,right,S2,0.0,495,4
12,90,2,right,S3,2.0,557,4
12,91,7,left,S2,4.0,445,4
12,92,5,left,S4,4.0,541,4
12,93,1,right,S2,4.0,510,4
12,94,9,left,S4,4.0,491,4
12,95,3,right,S4,4.0,502,4
12,96,9,left,S4,4.0,412,4
12,97,9,left,S4,4.0,796,4
12,98,3,right,S4,4.0,468,4
12,99,4,left,S3,2.0,635,4
12,100,7,left,S2,0.0,429,4
12,101,5,right,S4,4.0,392,4
12,102,9,right,S4,4.0,391,4
12,103,7,left,S2,4.0,412,4
12,104,7,right,S2,0.0,390,4
12,105,1,right,S2,0.0,599,4
12,106,6,left,S1,0.0,596,4
12,107,3,right,S4,4.0,533,4
12,108,2,left,S3,2.0,613,4
12,109,2,right,S3,2.0,427,4
12,110,2,right,S2,4.0,644,4
12,111,3,left,S2,0.0,528,4
12,112,2,left,S2,4.0,628,4
12,113,5,right,S4,4.0,496,4
12,114,4,left,S3,2.0,646,4
12,115,6,left,S1,0.0,564,4
12,116,6,right,S1,0.0,461,4
12,117,4,right,S3,2.0,655,4
12,118,2,right,S3,2.0,540,4
12,119,7,left,S2,4.0,489,4
12,120,8,left,S3,2.0,406,4
12,121,9,left,S4,4.0,423,4
12,122,5,left,S4,4.0,686,4
12,123,2,right,S3,2.0,545,4
12,124,8,left,S3,2.0,401,4
12,125,2,right,S3,2.0,453,4
12,126,4,left,S3,2.0,611,4
12,127,6,left,S1,0.0,421,4
12,128,8,left,S3,2.0,405,4
12,129,8,left,S3,2.0,416,4
12,130,2,right,S3,2.0,526,4
12,131,6,left,S1,0.0,413,4
12,132,9,right,S4,4.0,417,4
12,133,8,right,S3,2.0,391,4
12,134,6,right,S1,0.0,469,4
12,135,2,right,S3,2.0,631,4
12,136,3,left,S4,4.0,560,4
12,137,5,left,S4,4.0,499,4
12,138,6,left,S1,0.0,460,4
12,139,5,left,S4,4.0,524,4
12,140,3,right,S4,4.0,482,4
12,141,4,left,S1,0.0,746,4
12,142,2,right,S2,4.0,683,4
12,143,8,left,S3,2.0,483,4
12,144,5,right,S4,4.0,447,4
12,145,1,right,S1,0.0,683,4
12,146,4,right,S1,0.0,694,4
12,147,1,left,S2,0.0,902,4
12,148,2,right,S2,4.0,589,4
12,149,8,right,S3,2.0,425,4
12,150,2,left,S3,2.0,652,4
12,151,5,left,S4,4.0,582,4
12,152,2,left,S2,4.0,638,4
12,153,7,right,S2,4.0,488,4
12,154,5,left,S4,4.0,551,4
12,155,5,left,S4,4.0,491,4
12,156,1,left,S2,0.0,1028,4
12,157,2,right,S3,2.0,768,4
12,158,2,left,S2,0.0,632,4
12,159,2,right,S3,2.0,592,4
12,160,2,left,S3,2.0,775,4
12,161,6,left,S1,0.0,571,4
12,162,5,right,S4,4.0,542,4
12,163,6,right,wrongside,,544,4
12,164,1,right,S1,0.0,536,4
12,165,1,right,S2,0.0,618,4
12,166,8,left,S3,2.0,461,4
12,167,3,right,S4,4.0,583,4
12,168,8,right,S3,2.0,513,4
12,169,6,left,S1,0.0,433,4
12,170,7,left,S2,0.0,390,4
12,171,1,right,S1,0.0,501,4
12,172,7,right,S2,4.0,506,4
12,173,6,left,S1,0.0,446,4
12,174,9,right,S4,4.0,424,4
12,175,7,left,wrongside,,474,4
12,176,7,right,S2,4.0,437,4
13,1,4,left,S3,2.0,1339,4
13,2,2,right,S3,2.0,1092,4
13,3,6,left,S1,0.0,547,4
13,4,6,right,S1,0.0,504,4
13,5,5,left,S3,2.0,746,4
13,6,9,left,S4,4.0,513,4
13,7,8,left,S3,2.0,661,4
13,8,9,left,S4,4.0,515,4
13,9,7,left,S2,0.0,731,4
13,10,6,right,S1,0.0,475,4
13,11,5,right,S4,4.0,850,4
13,12,7,left,S2,0.0,480,4
13,13,1,right,S1,0.0,727,4
13,14,4,left,S3,2.0,620,4
13,15,3,right,S4,4.0,559,4
13,16,1,right,S1,0.0,622,4
13,17,7,right,S2,4.0,582,4
13,18,9,right,S4,4.0,603,4
13,19,7,right,S2,0.0,569,4
13,20,6,right,S1,0.0,502,4
13,21,8,right,S3,2.0,489,4
13,22,3,right,S4,4.0,519,4
13,23,8,right,S3,2.0,451,4
13,24,2,left,S3,2.0,490,4
13,25,9,right,S4,4.0,474,4
13,26,8,left,S3,2.0,477,4
13,27,3,left,S2,4.0,550,4
13,28,3,right,S2,4.0,659,4
13,29,1,left,S2,0.0,832,4
13,30,6,right,S1,0.0,634,4
13,31,5,left,S3,2.0,755,4
13,32,2,right,S3,2.0,661,4
13,33,4,right,S3,2.0,774,4
13,34,1,right,S2,4.0,789,4
13,35,9,left,S4,4.0,589,4
13,36,3,left,S4,4.0,787,4
13,37,2,right,S2,4.0,947,4
13,38,2,right,S2,4.0,693,4
13,39,2,right,S2,0.0,686,4
13,40,3,right,S4,4.0,758,4
13,41,2,left,S2,0.0,850,4
13,42,3,right,S4,4.0,673,4
13,43,5,left,S4,4.0,1635,4
13,44,4,right,S3,2.0,945,4
13,45,7,left,S2,0.0,548,4
13,46,5,right,S4,4.0,687,4
13,47,8,right,S3,2.0,506,4
13,48,3,left,S4,4.0,517,4
13,49,6,right,S1,0.0,469,4
13,50,3,right,S4,4.0,741,4
13,51,1,right,S2,4.0,625,4
13,52,7,right,S2,0.0,449,4
13,53,3,left,S2,4.0,659,4
13,54,9,left,S4,4.0,467,4
13,55,6,left,S1,0.0,935,4
13,56,2,right,S2,4.0,573,4
13,57,5,right,S4,4.0,510,4
13,58,2,right,S2,0.0,713,4
13,59,4,left,S3,2.0,667,4
13,60,2,left,S2,0.0,548,4
13,61,8,right,S3,2.0,448,4
13,62,3,right,S4,4.0,599,4
13,63,3,left,S4,4.0,755,4
13,64,7,right,S2,4.0,442,4
13,65,8,right,S3,2.0,549,4
13,66,7,right,S2,0.0,407,4
13,67,4,left,S3,2.0,662,4
13,68,6,left,S1,0.0,582,4
13,69,4,left,S3,2.0,1189,4
13,70,2,right,S2,0.0,1181,4
13,71,1,left,S2,4.0,647,4
13,72,2,right,S2,4.0,692,4
13,73,3,left,S4,4.0,643,4
13,74,3,right,S4,4.0,836,4
13,75,2,left,S3,2.0,550,4
13,76,3,right,S4,4.0,751,4
13,77,1,right,S2,0.0,733,4
13,78,4,left,S3,2.0,702,4
13,79,5,left,S4,4.0,611,4
13,80,8,left,S3,2.0,501,4
13,81,7,left,S2,4.0,431,4
13,82,2,left,S2,0.0,631,4
13,83,6,right,S1,0.0,484,4
13,84,6,right,S1,0.0,498,4
13,85,9,right,S4,4.0,406,4
13,86,5,right,S4,4.0,463,4
13,87,1,right,S2,4.0,672,4
13,88,4,left,S3,2.0,651,4
13,89,9,left,S4,4.0,483,4
13,90,5,left,S4,4.0,535,4
13,91,1,left,S2,4.0,773,4
13,92,2,left,S2,0.0,514,4
13,93,9,right,S4,4.0,490,4
13,94,5,left,S4,4.0,604,4
13,95,8,right,S3,2.0,739,4
13,96,3,left,S4,4.0,692,4
13,97,7,left,S2,0.0,580,4
13,98,7,right,S2,4.0,418,4
13,99,8,left,S3,2.0,400,4
13,100,3,right,S4,4.0,545,4
13,101,7,left,S2,4.0,448,4
13,102,1,left,S2,0.0,465,4
13,103,1,left,S2,4.0,565,4
13,104,2,right,S2,0.0,601,4
13,105,2,left,S2,4.0,452,4
13,106,6,right,S1,0.0,572,4
13,107,8,right,S3,2.0,597,4
13,108,1,left,S2,0.0,478,4
13,109,2,left,S2,0.0,524,4
13,110,6,right,S1,0.0,452,4
13,111,1,left,S2,4.0,613,4
13,112,3,left,S4,4.0,525,4
13,113,1,right,S2,4.0,621,4
13,114,1,left,S2,0.0,440,4
13,115,9,left,S4,4.0,411,4
13,116,1,left,S2,4.0,690,4
13,117,9,right,S4,4.0,453,4
13,118,6,right,S1,0.0,475,4
13,119,1,left,S2,4.0,431,4
13,120,4,right,S3,2.0,691,4
13,121,9,right,S4,4.0,489,4
13,122,9,right,S4,4.0,434,4
13,123,2,right,S2,0.0,670,4
13,124,5,left,S4,4.0,562,4
13,125,8,left,S3,2.0,448,4
13,126,1,right,S2,0.0,559,4
13,127,2,right,S2,0.0,524,4
13,128,7,right,S2,4.0,447,4
13,129,2,left,S3,2.0,640,4
13,130,1,right,S2,0.0,624,4
13,131,5,left,S4,4.0,604,4
13,132,4,right,S3,2.0,610,4
13,133,8,right,S3,2.0,447,4
13,134,7,left,S2,4.0,420,4
13,135,9,right,S4,4.0,427,4
13,136,6,right,S1,0.0,363,4
13,137,4,left,S3,2.0,552,4
13,138,2,left,S2,4.0,441,4
13,139,9,right,S4,4.0,415,4
13,140,2,left,S2,4.0,485,4
13,141,2,left,S2,0.0,506,4
13,142,2,right,S2,0.0,590,4
13,143,5,left,S4,4.0,576,4
13,144,4,left,S3,2.0,794,4
13,145,1,right,S1,0.0,707,4
13,146,1,left,S2,4.0,654,4
13,147,2,left,S3,2.0,862,4
13,148,7,left,S2,0.0,488,4
13,149,4,left,S3,2.0,859,4
13,150,4,left,S3,2.0,624,4
13,151,9,left,S4,4.0,485,4
13,152,5,right,S4,4.0,783,4
13,153,3,left,S2,0.0,772,4
13,154,2,left,S3,2.0,1021,4
13,155,7,right,S2,4.0,457,4
13,156,6,right,S1,0.0,404,4
13,157,5,right,S4,4.0,611,4
13,158,8,right,S3,2.0,526,4
13,159,5,right,S4,4.0,545,4
13,160,2,right,S2,4.0,880,4
13,161,2,right,S2,0.0,484,4
13,162,4,right,S3,2.0,702,4
13,163,8,right,S3,2.0,445,4
13,164,2,left,S3,2.0,809,4
13,165,2,left,S3,2.0,548,4
13,166,3,left,S4,4.0,604,4
13,167,7,right,S2,4.0,849,4
13,168,6,left,S1,0.0,522,4
13,169,5,left,S4,4.0,541,4
13,170,7,left,S2,4.0,503,4
13,171,3,right,S4,4.0,536,4
13,172,2,left,S3,2.0,1176,4
13,173,8,left,S3,2.0,479,4
13,174,1,right,S2,0.0,628,4
13,175,3,left,S4,4.0,579,4
13,176,4,left,S3,2.0,744,4
14,1,8,left,S3,2.0,15216,4
14,2,7,right,S2,0.0,610,4
14,3,7,left,wrongside,,417,4
14,4,4,left,S3,2.0,885,4
14,5,4,right,S1,0.0,586,4
14,6,2,left,S2,0.0,552,4
14,7,8,left,S3,2.0,496,4
14,8,9,right,S4,4.0,565,4
14,9,7,left,S2,4.0,758,4
14,10,8,right,S3,2.0,499,4
14,11,1,left,S2,4.0,766,4
14,12,3,right,S2,4.0,554,4
14,13,2,right,S2,4.0,151,4
14,14,9,left,S4,4.0,601,4
14,15,3,right,S4,4.0,353,4
14,16,9,left,wrongside,,414,4
14,17,9,right,S4,4.0,1337,4
14,18,6,right,S1,0.0,997,4
14,19,8,left,S3,2.0,337,4
14,20,6,left,wrongside,,316,4
14,21,5,right,S3,2.0,810,4
14,22,6,left,wrongside,,8,4
14,23,6,left,S1,0.0,555,4
14,24,1,left,S1,0.0,25,4
14,25,5,right,S4,4.0,1015,4
14,26,7,right,wrongside,,240,4
14,27,3,left,S4,4.0,1614,4
14,28,5,left,S3,2.0,614,4
14,29,8,left,S3,2.0,567,4
14,30,4,right,S3,2.0,667,4
14,31,3,right,S4,4.0,714,4
14,32,3,right,S4,4.0,718,4
14,33,9,left,S4,4.0,804,4
14,34,6,left,S1,0.0,659,4
14,35,2,right,S3,2.0,633,4
14,36,3,left,S4,4.0,766,4
14,37,8,left,S3,2.0,633,4
14,38,3,right,S4,4.0,593,4
14,39,1,left,S1,0.0,694,4
14,40,2,right,S2,0.0,526,4
14,41,1,left,S1,0.0,683,4
14,42,1,right,S1,0.0,628,4
14,43,4,right,S3,2.0,711,4
14,44,3,left,S4,4.0,659,4
14,45,9,right,S4,4.0,836,4
14,46,9,right,S4,4.0,521,4
14,47,3,right,S4,4.0,746,4
14,48,7,right,S2,0.0,532,4
14,49,2,left,S2,0.0,681,4
14,50,8,left,S3,2.0,505,4
14,51,6,right,S1,0.0,497,4
14,52,5,right,S4,4.0,842,4
14,53,3,left,S4,4.0,581,4
14,54,7,right,S2,0.0,446,4
14,55,2,left,S3,2.0,623,4
14,56,9,left,S4,4.0,506,4
14,57,2,right,S3,2.0,616,4
14,58,4,left,S1,0.0,722,4
14,59,3,right,S4,4.0,503,4
14,60,1,right,S1,0.0,700,4
14,61,1,right,S1,0.0,797,4
14,62,7,right,S2,0.0,519,4
14,63,2,right,S3,2.0,616,4
14,64,1,left,S1,0.0,580,4
14,65,1,right,S2,4.0,532,4
14,66,4,left,S3,2.0,594,4
14,67,6,left,S1,0.0,575,4
14,68,6,left,S1,0.0,630,4
14,69,1,right,S1,0.0,474,4
14,70,5,left,S4,4.0,557,4
14,71,9,right,wrongside,,1098,4
14,72,4,left,S3,2.0,597,4
14,73,1,left,S1,0.0,675,4
14,74,6,left,S1,0.0,606,4
14,75,2,right,S3,2.0,533,4
14,76,5,left,S4,4.0,579,4
14,77,2,left,S3,2.0,593,4
14,78,1,left,S1,0.0,680,4
14,79,5,left,S4,4.0,609,4
14,80,5,left,S3,2.0,683,4
14,81,2,left,S3,2.0,609,4
14,82,2,right,S3,2.0,635,4
14,83,8,left,S3,2.0,545,4
14,84,3,left,S4,4.0,581,4
14,85,2,right,S3,2.0,587,4
14,86,2,left,S3,2.0,554,4
14,87,4,right,S3,2.0,804,4
14,88,9,right,S4,4.0,563,4
14,89,2,right,S3,2.0,676,4
14,90,2,left,S3,2.0,640,4
14,91,9,right,S4,4.0,506,4
14,92,3,left,S4,4.0,589,4
14,93,1,left,S1,0.0,646,4
14,94,1,right,S2,4.0,603,4
14,95,2,left,S3,2.0,564,4
14,96,4,right,S3,2.0,705,4
14,97,5,right,S4,4.0,760,4
14,98,5,left,S4,4.0,633,4
14,99,7,left,S2,4.0,674,4
14,100,2,left,S2,0.0,498,4
14,101,2,left,S3,2.0,675,4
14,102,6,left,S1,0.0,829,4
14,103,2,right,S3,2.0,788,4
14,104,3,right,S4,4.0,638,4
14,105,8,right,S3,2.0,804,4
14,106,4,left,S1,0.0,1065,4
14,107,6,left,S1,0.0,839,4
14,108,1,right,S2,4.0,872,4
14,109,9,right,S4,4.0,597,4
14,110,1,right,S1,0.0,817,4
14,111,2,right,S2,4.0,902,4
14,112,4,right,S3,2.0,891,4
14,113,7,left,S2,0.0,731,4
14,114,4,right,S3,2.0,903,4
14,115,2,right,S2,0.0,702,4
14,116,3,left,S4,4.0,992,4
14,117,2,left,S3,2.0,1011,4
14,118,2,left,S3,2.0,844,4
14,119,3,right,S4,4.0,841,4
14,120,7,right,S2,4.0,900,4
14,121,3,left,S4,4.0,802,4
14,122,7,left,S2,0.0,678,4
14,123,3,right,S2,4.0,812,4
14,124,9,right,S4,4.0,542,4
14,125,2,left,S2,4.0,719,4
14,126,7,right,S2,0.0,586,4
14,127,6,left,S1,0.0,628,4
14,128,4,right,S1,0.0,904,4
14,129,2,left,S3,2.0,694,4
14,130,8,right,S3,2.0,634,4
14,131,9,right,S4,4.0,554,4
14,132,3,right,S4,4.0,738,4
14,133,4,right,S3,2.0,838,4
14,134,5,left,S4,4.0,761,4
14,135,5,right,S4,4.0,936,4
14,136,1,left,S2,4.0,797,4
14,137,6,right,S1,0.0,676,4
14,138,7,left,S2,0.0,495,4
14,139,6,left,S1,0.0,535,4
14,140,8,right,S3,2.0,514,4
14,141,4,right,S1,0.0,762,4
14,142,2,left,S3,2.0,609,4
14,143,4,right,S3,2.0,667,4
14,144,2,left,S3,2.0,665,4
14,145,1,right,S2,4.0,644,4
14,146,8,left,S3,2.0,679,4
14,147,7,left,S2,0.0,559,4
14,148,2,right,S3,2.0,697,4
14,149,8,left,S3,2.0,620,4
14,150,5,right,S4,4.0,620,4
14,151,2,left,S3,2.0,603,4
14,152,4,right,S3,2.0,644,4
14,153,6,left,S1,0.0,605,4
14,154,8,left,S3,2.0,630,4
14,155,3,right,S4,4.0,826,4
14,156,9,left,S4,4.0,871,4
14,157,2,right,S3,2.0,573,4
14,158,7,right,S2,0.0,561,4
14,159,5,right,S4,4.0,938,4
14,160,8,left,S3,2.0,727,4
14,161,8,left,S3,2.0,560,4
14,162,5,right,S4,4.0,732,4
14,163,1,right,S2,4.0,661,4
14,164,7,right,S2,4.0,509,4
14,165,7,left,S2,0.0,537,4
14,166,5,right,S4,4.0,581,4
14,167,1,left,S2,0.0,887,4
14,168,3,left,S2,4.0,641,4
14,169,5,right,S4,4.0,564,4
14,170,7,right,S2,4.0,675,4
14,171,2,right,S2,0.0,601,4
14,172,1,left,S2,4.0,695,4
14,173,9,right,S4,4.0,514,4
14,174,3,right,S4,4.0,552,4
14,175,1,left,S1,0.0,539,4
14,176,6,left,S1,0.0,762,4
15,1,8,right,S3,2.0,935,4
15,2,5,left,S4,4.0,886,4
15,3,2,left,S2,0.0,694,4
15,4,2,right,S3,2.0,720,4
15,5,9,right,S4,4.0,614,4
15,6,8,left,S3,2.0,538,4
15,7,5,left,S3,2.0,601,4
15,8,7,left,S2,4.0,437,4
15,9,1,left,S1,0.0,562,4
15,10,1,right,S1,0.0,412,4
15,11,6,left,S1,0.0,557,4
15,12,7,left,S2,4.0,454,4
15,13,6,right,S1,0.0,371,4
15,14,9,left,S4,4.0,364,4
15,15,9,left,S4,4.0,327,4
15,16,4,left,S1,0.0,323,4
15,17,7,left,S2,0.0,411,4
15,18,4,right,S3,2.0,406,4
15,19,7,right,S2,0.0,366,4
15,20,3,right,S4,4.0,631,4
15,21,8,left,S3,2.0,406,4
15,22,3,right,S2,0.0,489,4
15,23,6,left,S1,0.0,339,4
15,24,8,left,S3,2.0,317,4
15,25,6,right,S1,0.0,442,4
15,26,9,right,S4,4.0,455,4
15,27,2,left,S3,2.0,329,4
15,28,9,right,S4,4.0,321,4
15,29,1,left,S2,4.0,990,4
15,30,3,right,S2,4.0,450,4
15,31,2,right,S2,0.0,553,4
15,32,9,right,S4,4.0,453,4
15,33,1,right,S2,4.0,674,4
15,34,4,left,S3,2.0,883,4
15,35,9,right,S4,4.0,328,4
15,36,2,right,S2,4.0,334,4
15,37,5,left,S4,4.0,572,4
15,38,8,right,wrongside,,78,4
15,39,1,left,S1,0.0,635,4
15,40,1,right,S1,0.0,575,4
15,41,2,left,S2,0.0,654,4
15,42,7,right,S2,0.0,380,4
15,43,5,right,S4,4.0,504,4
15,44,7,left,S2,4.0,517,4
15,45,3,right,S4,4.0,519,4
15,46,2,right,S2,4.0,565,4
15,47,5,right,S3,2.0,468,4
15,48,4,left,S3,2.0,483,4
15,49,3,left,S4,4.0,755,4
15,50,1,right,S1,0.0,683,4
15,51,8,left,S3,2.0,510,4
15,52,4,right,S3,2.0,799,4
15,53,8,right,S3,2.0,467,4
15,54,7,left,S2,0.0,631,4
15,55,5,right,S3,2.0,622,4
15,56,4,right,S3,2.0,650,4
15,57,6,right,S1,0.0,418,4
15,58,9,right,S4,4.0,417,4
15,59,3,left,S2,4.0,513,4
15,60,1,right,S1,0.0,683,4
15,61,8,right,S3,2.0,557,4
15,62,4,left,S3,2.0,437,4
15,63,1,left,S2,4.0,626,4
15,64,2,left,S3,2.0,587,4
15,65,7,left,S2,0.0,447,4
15,66,2,left,S2,0.0,500,4
15,67,5,left,S3,2.0,451,4
15,68,6,right,S1,0.0,400,4
15,69,5,right,S4,4.0,481,4
15,70,7,left,S2,0.0,507,4
15,71,2,left,S2,4.0,761,4
15,72,7,left,S2,0.0,525,4
15,73,6,right,S1,0.0,650,4
15,74,2,right,S2,4.0,502,4
15,75,1,left,S2,0.0,432,4
15,76,1,left,S2,0.0,508,4
15,77,3,left,S4,4.0,597,4
15,78,4,right,S3,2.0,661,4
15,79,2,left,S3,2.0,654,4
15,80,3,right,S4,4.0,502,4
15,81,3,left,S4,4.0,546,4
15,82,1,left,S2,4.0,544,4
15,83,6,left,S1,0.0,470,4
15,84,9,left,S4,4.0,328,4
15,85,5,right,S4,4.0,521,4
15,86,8,right,S3,2.0,423,4
15,87,9,right,S4,4.0,344,4
15,88,8,right,S3,2.0,416,4
15,89,3,left,S2,0.0,384,4
15,90,6,right,S1,0.0,364,4
15,91,4,left,S1,0.0,541,4
15,92,4,left,S3,2.0,649,4
15,93,5,right,S4,4.0,516,4
15,94,2,left,S2,4.0,459,4
15,95,5,right,S4,4.0,1058,4
15,96,4,right,S3,2.0,907,4
15,97,2,left,S3,2.0,934,4
15,98,5,left,S4,4.0,570,4
15,99,5,right,S4,4.0,666,4
15,100,4,right,S1,0.0,648,4
15,101,4,left,S1,0.0,552,4
15,102,2,left,S3,2.0,710,4
15,103,3,left,S4,4.0,493,4
15,104,6,right,S1,0.0,540,4
15,105,5,left,S4,4.0,429,4
15,106,1,left,S2,4.0,479,4
15,107,5,right,S4,4.0,459,4
15,108,6,right,S1,0.0,449,4
15,109,2,left,S2,0.0,322,4
15,110,5,left,S4,4.0,477,4
15,111,4,left,S1,0.0,648,4
15,112,8,right,S3,2.0,448,4
15,113,7,left,S2,4.0,467,4
15,114,1,right,S2,4.0,819,4
15,115,3,left,S4,4.0,552,4
15,116,3,right,S4,4.0,494,4
15,117,2,left,S3,2.0,756,4
15,118,3,left,S4,4.0,488,4
15,119,9,right,S4,4.0,525,4
15,120,1,left,S2,4.0,654,4
15,121,2,left,S2,0.0,623,4
15,122,8,right,S3,2.0,509,4
15,123,7,left,S2,0.0,515,4
15,124,3,left,S4,4.0,545,4
15,125,1,right,S2,4.0,630,4
15,126,8,left,S3,2.0,598,4
15,127,1,right,S2,4.0,788,4
15,128,3,left,S4,4.0,716,4
15,129,9,right,S4,4.0,516,4
15,130,2,left,S2,0.0,526,4
15,131,6,right,S1,0.0,504,4
15,132,2,left,S2,0.0,436,4
15,133,2,left,S3,2.0,591,4
15,134,8,left,S3,2.0,524,4
15,135,4,left,S3,2.0,470,4
15,136,2,left,S3,2.0,540,4
15,137,3,right,S4,4.0,511,4
15,138,9,left,S4,4.0,451,4
15,139,2,left,S3,2.0,453,4
15,140,1,left,S1,0.0,403,4
15,141,6,right,S1,0.0,368,4
15,142,3,left,S4,4.0,434,4
15,143,4,right,S1,0.0,545,4
15,144,1,left,S1,0.0,431,4
15,145,4,right,S3,2.0,560,4
15,146,3,right,S4,4.0,435,4
15,147,2,left,S3,2.0,495,4
15,148,6,right,S1,0.0,387,4
15,149,2,left,S2,0.0,507,4
15,150,6,left,S1,0.0,418,4
15,151,5,left,S4,4.0,408,4
15,152,1,right,S2,4.0,551,4
15,153,2,right,S2,0.0,541,4
15,154,7,left,S2,0.0,543,4
15,155,2,right,S2,4.0,496,4
15,156,2,left,S3,2.0,747,4
15,157,7,left,S2,4.0,480,4
15,158,2,left,S2,4.0,541,4
15,159,3,right,S4,4.0,467,4
15,160,9,right,S4,4.0,447,4
15,161,2,left,S2,0.0,524,4
15,162,7,right,S2,0.0,446,4
15,163,7,right,S2,0.0,414,4
15,164,9,left,S4,4.0,373,4
15,165,7,right,S2,0.0,392,4
15,166,6,right,S1,0.0,375,4
15,167,3,left,S4,4.0,328,4
15,168,7,right,S2,0.0,262,4
15,169,1,left,S2,4.0,310,4
15,170,9,right,S4,4.0,284,4
15,171,8,right,S3,2.0,350,4
15,172,2,left,S2,4.0,406,4
15,173,3,left,S4,4.0,417,4
15,174,8,right,S3,2.0,302,4
15,175,1,left,S2,4.0,394,4
15,176,2,left,S3,2.0,416,4
16,1,7,left,S2,4.0,2882,4
16,2,7,left,S2,4.0,522,4
16,3,7,right,S2,4.0,636,4
16,4,8,left,S3,2.0,729,4
16,5,7,right,S2,4.0,530,4
16,6,9,left,S4,4.0,678,4
16,7,6,right,S1,0.0,840,4
16,8,5,right,S4,4.0,1140,4
16,9,2,left,S2,0.0,577,4
16,10,3,right,S2,0.0,527,4
16,11,2,right,S3,2.0,566,4
16,12,8,right,S3,2.0,535,4
16,13,4,left,S3,2.0,560,4
16,14,9,right,S4,4.0,537,4
16,15,3,left,S4,4.0,703,4
16,16,8,right,S3,2.0,506,4
16,17,1,left,S1,0.0,710,4
16,18,6,left,S1,0.0,505,4
16,19,5,left,S3,2.0,792,4
16,20,9,left,S4,4.0,507,4
16,21,6,left,S1,0.0,819,4
16,22,9,left,S4,4.0,614,4
16,23,8,right,S3,2.0,729,4
16,24,1,left,S2,0.0,747,4
16,25,6,left,S1,0.0,564,4
16,26,4,right,S3,2.0,800,4
16,27,6,right,S1,0.0,530,4
16,28,2,left,S2,0.0,687,4
16,29,2,right,S3,2.0,465,4
16,30,1,left,S1,0.0,901,4
16,31,4,right,S3,2.0,596,4
16,32,1,right,S2,0.0,463,4
16,33,7,left,S2,0.0,687,4
16,34,7,left,S2,4.0,568,4
16,35,5,right,S4,4.0,717,4
16,36,4,left,S3,2.0,816,4
16,37,6,right,S1,0.0,471,4
16,38,5,left,S3,2.0,595,4
16,39,4,right,S3,2.0,731,4
16,40,2,left,S3,2.0,887,4
16,41,1,left,S2,4.0,924,4
16,42,3,right,S4,4.0,829,4
16,43,8,left,S3,2.0,740,4
16,44,6,left,S1,0.0,684,4
16,45,9,left,S4,4.0,602,4
16,46,2,right,S2,0.0,848,4
16,47,1,right,S2,4.0,977,4
16,48,2,right,S2,4.0,1159,4
16,49,6,right,S1,0.0,764,4
16,50,7,right,S2,0.0,609,4
16,51,6,right,S1,0.0,645,4
16,52,6,left,S1,0.0,695,4
16,53,9,right,S4,4.0,679,4
16,54,9,left,S4,4.0,644,4
16,55,5,right,S4,4.0,1161,4
16,56,4,left,S3,2.0,1105,4
16,57,2,right,S3,2.0,1302,4
16,58,7,left,S2,0.0,489,4
16,59,2,right,S3,2.0,688,4
16,60,4,left,S3,2.0,802,4
16,61,3,left,S4,4.0,860,4
16,62,9,left,S4,4.0,600,4
16,63,5,left,S4,4.0,768,4
16,64,8,left,S3,2.0,625,4
16,65,4,right,S3,2.0,786,4
16,66,2,left,S2,4.0,1077,4
16,67,3,right,S2,4.0,976,4
16,68,3,left,S2,0.0,937,4
16,69,3,left,S4,4.0,560,4
16,70,5,right,S4,4.0,864,4
16,71,1,left,S2,0.0,761,4
16,72,4,left,S3,2.0,911,4
16,73,7,right,S2,4.0,769,4
16,74,1,left,S2,4.0,779,4
16,75,2,left,S2,0.0,1200,4
16,76,2,left,S3,2.0,930,4
16,77,3,left,S4,4.0,767,4
16,78,2,left,S3,2.0,865,4
16,79,2,left,S2,4.0,1081,4
16,80,2,left,S2,4.0,765,4
16,81,8,left,S3,2.0,815,4
16,82,3,right,S4,4.0,715,4
16,83,3,left,S4,4.0,775,4
16,84,5,left,S4,4.0,735,4
16,85,5,left,S4,4.0,619,4
16,86,8,right,S3,2.0,652,4
16,87,3,left,S4,4.0,965,4
16,88,5,right,S4,4.0,1067,4
16,89,9,left,S4,4.0,487,4
16,90,8,left,S3,2.0,625,4
16,91,7,right,S2,0.0,630,4
16,92,3,left,S4,4.0,670,4
16,93,8,right,S3,2.0,571,4
16,94,6,right,S1,0.0,764,4
16,95,8,left,S3,2.0,496,4
16,96,1,right,S2,4.0,984,4
16,97,7,left,S2,0.0,597,4
16,98,4,right,S3,2.0,956,4
16,99,4,left,S1,0.0,995,4
16,100,3,right,S4,4.0,1179,4
16,101,8,right,S3,2.0,586,4
16,102,3,right,S4,4.0,850,4
16,103,1,right,S2,4.0,1041,4
16,104,8,left,S3,2.0,693,4
16,105,6,right,S1,0.0,1708,4
16,106,9,left,S4,4.0,596,4
16,107,2,right,S2,0.0,737,4
16,108,9,left,S4,4.0,550,4
16,109,2,right,S2,0.0,1126,4
16,110,1,right,S2,4.0,674,4
16,111,8,right,S3,2.0,584,4
16,112,5,left,S4,4.0,648,4
16,113,5,left,S4,4.0,615,4
16,114,3,right,S4,4.0,967,4
16,115,4,right,S3,2.0,893,4
16,116,2,left,S3,2.0,1006,4
16,117,7,right,S2,4.0,754,4
16,118,6,left,S1,0.0,826,4
16,119,4,left,S3,2.0,872,4
16,120,2,left,S3,2.0,885,4
16,121,1,right,S2,4.0,1323,4
16,122,9,left,S4,4.0,515,4
16,123,2,left,S3,2.0,1040,4
16,124,9,right,S4,4.0,583,4
16,125,3,left,S4,4.0,811,4
16,126,2,right,S2,0.0,1106,4
16,127,7,right,S2,4.0,731,4
16,128,6,right,S1,0.0,751,4
16,129,5,right,S4,4.0,1018,4
16,130,2,left,S3,2.0,1181,4
16,131,3,right,S4,4.0,894,4
16,132,2,right,S3,2.0,1263,4
16,133,1,left,S2,0.0,1108,4
16,134,4,right,S3,2.0,809,4
16,135,9,left,S4,4.0,542,4
16,136,3,right,S4,4.0,728,4
16,137,2,left,S3,2.0,975,4
16,138,3,right,S4,4.0,1011,4
16,139,7,left,S2,0.0,771,4
16,140,7,left,S2,0.0,789,4
16,141,4,right,S3,2.0,914,4
16,142,1,left,S2,4.0,991,4
16,143,6,right,S1,0.0,782,4
16,144,9,right,S4,4.0,587,4
16,145,7,right,S2,4.0,712,4
16,146,8,right,S3,2.0,598,4
16,147,5,left,S4,4.0,1013,4
16,148,1,right,S2,0.0,724,4
16,149,2,right,S3,2.0,1017,4
16,150,2,right,S3,2.0,1238,4
16,151,3,right,S4,4.0,889,4
16,152,8,right,S3,2.0,610,4
16,153,1,left,S2,0.0,924,4
16,154,2,left,S3,2.0,1246,4
16,155,1,right,S2,4.0,1448,4
16,156,2,right,S3,2.0,874,4
16,157,1,right,S2,4.0,1132,4
16,158,2,right,S3,2.0,724,4
16,159,5,right,S4,4.0,934,4
16,160,5,left,S4,4.0,772,4
16,161,6,right,S1,0.0,806,4
16,162,2,right,S3,2.0,887,4
16,163,2,right,S3,2.0,1084,4
16,164,3,right,S4,4.0,816,4
16,165,7,right,S2,0.0,680,4
16,166,5,left,S4,4.0,1011,4
16,167,1,right,S2,0.0,837,4
16,168,2,left,S3,2.0,1125,4
16,169,4,right,S3,2.0,816,4
16,170,7,left,S2,0.0,829,4
16,171,4,right,S3,2.0,648,4
16,172,1,left,S2,4.0,1271,4
16,173,1,left,S2,0.0,1509,4
16,174,9,right,S4,4.0,542,4
16,175,3,right,S4,4.0,837,4
16,176,1,left,S2,4.0,739,4
17,1,7,right,S2,0.0,1969,4
17,2,6,left,S1,0.0,463,4
17,3,4,left,S3,2.0,1024,4
17,4,6,right,S1,0.0,423,4
17,5,2,left,S3,2.0,575,4
17,6,8,right,wrongside,,456,4
17,7,7,left,S2,4.0,433,4
17,8,8,left,S3,2.0,440,4
17,9,9,right,S4,4.0,440,4
17,10,7,right,S2,0.0,531,4
17,11,2,left,S3,2.0,1114,4
17,12,6,left,S1,0.0,508,4
17,13,1,right,S2,0.0,628,4
17,14,5,left,S3,2.0,646,4
17,15,4,left,S3,2.0,483,4
17,16,6,left,S1,0.0,831,4
17,17,3,right,S2,0.0,572,4
17,18,7,right,S2,4.0,465,4
17,19,3,left,S4,4.0,672,4
17,20,5,left,S3,2.0,525,4
17,21,9,right,S4,4.0,427,4
17,22,9,left,S4,4.0,384,4
17,23,1,left,S2,4.0,513,4
17,24,8,right,S3,2.0,586,4
17,25,9,left,S4,4.0,365,4
17,26,8,left,S3,2.0,404,4
17,27,6,left,S1,0.0,639,4
17,28,1,left,S1,0.0,449,4
17,29,1,left,S2,4.0,437,4
17,30,8,right,S3,2.0,458,4
17,31,7,right,S2,0.0,500,4
17,32,4,left,S3,2.0,425,4
17,33,5,left,S3,2.0,396,4
17,34,8,left,S3,2.0,442,4
17,35,7,right,S2,4.0,394,4
17,36,8,left,S3,2.0,403,4
17,37,1,left,S1,0.0,451,4
17,38,1,left,S1,0.0,618,4
17,39,5,left,S4,4.0,440,4
17,40,8,right,S3,2.0,381,4
17,41,6,left,S1,0.0,444,4
17,42,1,left,S2,4.0,443,4
17,43,3,left,S2,0.0,599,4
17,44,5,left,S4,4.0,415,4
17,45,3,left,S4,4.0,411,4
17,46,6,right,S1,0.0,433,4
17,47,5,left,S3,2.0,504,4
17,48,2,left,S2,4.0,474,4
17,49,5,left,S3,2.0,391,4
17,50,6,left,S1,0.0,411,4
17,51,2,left,S3,2.0,496,4
17,52,4,left,S3,2.0,345,4
17,53,2,left,S3,2.0,807,4
17,54,7,left,wrongside,,773,4
17,55,5,left,S3,2.0,570,4
17,56,1,left,S1,0.0,464,4
17,57,5,left,S4,4.0,448,4
17,58,6,right,S1,0.0,777,4
17,59,2,left,S2,0.0,377,4
17,60,3,left,S2,0.0,425,4
17,61,1,right,S2,4.0,469,4
17,62,3,right,S2,4.0,701,4
17,63,5,right,S4,4.0,665,4
17,64,7,right,S2,0.0,404,4
17,65,9,right,S4,4.0,392,4
17,66,2,right,S2,0.0,461,4
17,67,1,left,S1,0.0,584,4
17,68,4,right,S3,2.0,589,4
17,69,1,right,S2,0.0,526,4
17,70,9,left,S4,4.0,427,4
17,71,3,left,S4,4.0,665,4
17,72,8,left,S3,2.0,495,4
17,73,4,left,S3,2.0,452,4
17,74,4,left,S3,2.0,431,4
17,75,3,left,S2,4.0,518,4
17,76,2,left,S3,2.0,412,4
17,77,6,right,S1,0.0,511,4
17,78,9,right,S4,4.0,543,4
17,79,2,left,S3,2.0,535,4
17,80,3,left,S2,4.0,969,4
17,81,7,right,S2,0.0,456,4
17,82,2,left,S3,2.0,690,4
17,83,4,left,S3,2.0,572,4
17,84,9,left,S4,4.0,452,4
17,85,4,right,S3,2.0,656,4
17,86,4,left,S1,0.0,456,4
17,87,3,right,S2,4.0,499,4
17,88,5,left,S4,4.0,598,4
17,89,3,left,S2,0.0,489,4
17,90,8,right,S3,2.0,390,4
17,91,5,right,S3,2.0,433,4
17,92,2,right,S3,2.0,434,4
17,93,6,left,S1,0.0,341,4
17,94,5,left,S3,2.0,660,4
17,95,4,left,S3,2.0,359,4
17,96,9,right,S4,4.0,579,4
17,97,5,left,S4,4.0,583,4
17,98,9,left,S4,4.0,424,4
17,99,5,left,S3,2.0,687,4
17,100,1,left,S1,0.0,366,4
17,101,8,left,S3,2.0,413,4
17,102,2,left,S3,2.0,460,4
17,103,2,left,S3,2.0,309,4
17,104,9,right,S4,4.0,572,4
17,105,1,left,S1,0.0,436,4
17,106,2,left,S2,0.0,505,4
17,107,5,left,S3,2.0,429,4
17,108,1,left,S2,4.0,526,4
17,109,7,right,S2,0.0,398,4
17,110,4,left,S3,2.0,471,4
17,111,1,left,S2,0.0,608,4
17,112,2,left,S3,2.0,654,4
17,113,2,right,S2,4.0,455,4
17,114,4,right,S3,2.0,764,4
17,115,4,left,S1,0.0,491,4
17,116,6,right,S1,0.0,584,4
17,117,6,right,S1,0.0,397,4
17,118,7,left,S2,4.0,374,4
17,119,3,left,S4,4.0,536,4
17,120,1,right,S1,0.0,483,4
17,121,3,left,S2,4.0,375,4
17,122,8,right,S3,2.0,511,4
17,123,2,left,S2,0.0,634,4
17,124,9,right,S4,4.0,502,4
17,125,1,right,S1,0.0,521,4
17,126,2,left,S3,2.0,517,4
17,127,1,left,S1,0.0,566,4
17,128,2,right,S3,2.0,534,4
17,129,6,right,S1,0.0,608,4
17,130,9,right,S4,4.0,469,4
17,131,3,right,S4,4.0,971,4
17,132,2,left,S2,4.0,722,4
17,133,1,left,S1,0.0,394,4
17,134,7,right,S2,4.0,402,4
17,135,8,left,S3,2.0,403,4
17,136,4,right,S1,0.0,799,4
17,137,7,left,S2,0.0,437,4
17,138,8,right,S3,2.0,511,4
17,139,7,right,S2,4.0,346,4
17,140,4,right,S3,2.0,728,4
17,141,1,right,S1,0.0,410,4
17,142,2,right,S2,0.0,378,4
17,143,3,left,S4,4.0,622,4
17,144,3,left,S4,4.0,426,4
17,145,3,left,S4,4.0,460,4
17,146,7,right,S2,4.0,371,4
17,147,3,right,S2,0.0,463,4
17,148,2,left,S2,0.0,252,4
17,149,2,right,S2,0.0,441,4
17,150,1,left,S2,4.0,422,4
17,151,3,right,S2,4.0,506,4
17,152,6,right,S1,0.0,432,4
17,153,1,left,S2,4.0,589,4
17,154,2,right,S2,4.0,633,4
17,155,3,left,S2,0.0,446,4
17,156,2,right,S2,0.0,541,4
17,157,3,left,S4,4.0,716,4
17,158,2,right,S3,2.0,458,4
17,159,8,right,S3,2.0,499,4
17,160,2,left,S3,2.0,564,4
17,161,4,right,S3,2.0,422,4
17,162,7,right,S2,0.0,754,4
17,163,7,right,S2,0.0,438,4
17,164,2,left,S2,4.0,358,4
17,165,9,left,S4,4.0,424,4
17,166,9,right,S4,4.0,532,4
17,167,2,right,S3,2.0,660,4
17,168,2,left,S2,0.0,452,4
17,169,8,left,S3,2.0,393,4
17,170,6,right,S1,0.0,575,4
17,171,3,left,S2,4.0,364,4
17,172,2,left,S3,2.0,423,4
17,173,5,right,S4,4.0,454,4
17,174,9,right,S4,4.0,798,4
17,175,2,left,S3,2.0,677,4
17,176,7,left,S2,0.0,398,4
18,1,1,right,S2,0.0,2458,4
18,2,8,right,S3,2.0,1155,4
18,3,9,left,S4,4.0,803,4
18,4,2,right,S2,0.0,739,4
18,5,6,right,S1,0.0,774,4
18,6,9,right,S4,4.0,901,4
18,7,3,left,S4,4.0,676,4
18,8,9,right,S4,4.0,694,4
18,9,8,right,S3,2.0,1015,4
18,10,6,right,S1,0.0,1115,4
18,11,7,right,wrongside,,1153,4
18,12,3,right,S4,4.0,1040,4
18,13,8,left,S3,2.0,1039,4
18,14,6,left,S1,0.0,772,4
18,15,5,right,S3,2.0,935,4
18,16,6,right,S1,0.0,1468,4
18,17,7,left,S2,4.0,814,4
18,18,2,left,S3,2.0,1614,4
18,19,9,left,S4,4.0,562,4
18,20,4,right,S3,2.0,791,4
18,21,8,right,S3,2.0,738,4
18,22,4,left,S3,2.0,851,4
18,23,5,left,S4,4.0,908,4
18,24,1,left,S1,0.0,750,4
18,25,7,left,S2,0.0,945,4
18,26,7,right,S2,4.0,521,4
18,27,7,right,S2,4.0,616,4
18,28,3,right,S4,4.0,755,4
18,29,1,right,S2,0.0,831,4
18,30,8,right,S3,2.0,601,4
18,31,3,left,S2,4.0,634,4
18,32,3,left,S4,4.0,892,4
18,33,5,right,S4,4.0,685,4
18,34,7,left,S2,0.0,671,4
18,35,8,right,S3,2.0,621,4
18,36,7,left,S2,0.0,644,4
18,37,1,right,S2,0.0,776,4
18,38,5,left,S4,4.0,1244,4
18,39,7,left,S2,4.0,810,4
18,40,8,left,S3,2.0,645,4
18,41,4,left,S3,2.0,652,4
18,42,1,left,S2,4.0,654,4
18,43,9,left,S4,4.0,690,4
18,44,7,right,S2,0.0,658,4
18,45,6,left,S1,0.0,727,4
18,46,1,right,S2,4.0,704,4
18,47,9,right,S4,4.0,596,4
18,48,8,left,S3,2.0,680,4
18,49,1,right,S2,4.0,571,4
18,50,3,left,S4,4.0,699,4
18,51,5,left,S4,4.0,639,4
18,52,7,right,S2,0.0,1184,4
18,53,6,right,S1,0.0,795,4
18,54,3,right,S4,4.0,819,4
18,55,9,right,S4,4.0,586,4
18,56,2,left,S2,4.0,805,4
18,57,2,left,S3,2.0,1124,4
18,58,9,right,S4,4.0,679,4
18,59,4,right,S3,2.0,634,4
18,60,8,right,S3,2.0,695,4
18,61,7,left,S2,0.0,620,4
18,62,3,left,S4,4.0,610,4
18,63,8,right,S3,2.0,746,4
18,64,1,right,S2,0.0,844,4
18,65,4,right,S3,2.0,1054,4
18,66,8,right,S3,2.0,1170,4
18,67,1,left,S2,4.0,833,4
18,68,4,right,S1,0.0,1260,4
18,69,4,right,S3,2.0,1380,4
18,70,2,left,S2,4.0,771,4
18,71,2,left,S2,0.0,647,4
18,72,2,left,S2,4.0,951,4
18,73,3,right,S4,4.0,739,4
18,74,1,right,S2,4.0,870,4
18,75,2,left,S2,0.0,855,4
18,76,2,left,S3,2.0,1046,4
18,77,8,right,S3,2.0,949,4
18,78,1,right,S2,4.0,1734,4
18,79,1,left,S2,0.0,675,4
18,80,3,left,S4,4.0,943,4
18,81,6,left,S1,0.0,818,4
18,82,8,left,S3,2.0,708,4
18,83,1,left,S2,0.0,785,4
18,84,5,right,S4,4.0,777,4
18,85,2,left,S2,4.0,1043,4
18,86,5,left,S4,4.0,762,4
18,87,2,left,S2,0.0,730,4
18,88,3,right,S4,4.0,727,4
18,89,1,right,S1,0.0,963,4
18,90,2,right,S2,4.0,1021,4
18,91,4,right,S3,2.0,1431,4
18,92,2,left,S2,4.0,1020,4
18,93,2,left,S2,0.0,863,4
18,94,2,left,S2,0.0,870,4
18,95,6,left,S1,0.0,930,4
18,96,3,left,S4,4.0,960,4
18,97,6,left,S1,0.0,783,4
18,98,2,left,S2,4.0,717,4
18,99,2,right,S3,2.0,1076,4
18,100,3,left,S4,4.0,757,4
18,101,2,left,S2,0.0,872,4
18,102,2,right,S2,4.0,1017,4
18,103,1,left,S2,0.0,1574,4
18,104,5,left,S4,4.0,687,4
18,105,7,left,S2,4.0,686,4
18,106,1,left,S2,4.0,583,4
18,107,1,left,S2,0.0,550,4
18,108,9,right,S4,4.0,611,4
18,109,5,left,S4,4.0,982,4
18,110,6,right,S1,0.0,634,4
18,111,8,right,S3,2.0,681,4
18,112,6,right,S1,0.0,634,4
18,113,1,left,S2,0.0,614,4
18,114,2,right,S3,2.0,774,4
18,115,1,right,S2,4.0,763,4
18,116,7,left,S2,0.0,868,4
18,117,3,right,S4,4.0,665,4
18,118,2,right,S2,4.0,759,4
18,119,3,right,S4,4.0,582,4
18,120,2,right,S2,4.0,864,4
18,121,2,right,S2,0.0,700,4
18,122,9,left,S4,4.0,683,4
18,123,3,left,S4,4.0,1396,4
18,124,4,right,S3,2.0,1010,4
18,125,5,right,S4,4.0,684,4
18,126,5,right,S4,4.0,591,4
18,127,5,left,S4,4.0,668,4
18,128,3,right,S4,4.0,585,4
18,129,2,right,S2,4.0,944,4
18,130,6,right,S1,0.0,886,4
18,131,8,right,S3,2.0,625,4
18,132,6,right,S1,0.0,586,4
18,133,5,left,S4,4.0,691,4
18,134,2,right,S2,0.0,742,4
18,135,4,right,S1,0.0,961,4
18,136,1,left,S2,4.0,836,4
18,137,8,right,S3,2.0,1024,4
18,138,3,right,S4,4.0,741,4
18,139,9,right,S4,4.0,583,4
18,140,4,right,S3,2.0,743,4
18,141,3,right,S4,4.0,598,4
18,142,2,left,S2,4.0,783,4
18,143,7,right,S2,0.0,684,4
18,144,5,left,S4,4.0,630,4
18,145,5,left,S4,4.0,560,4
18,146,5,right,S4,4.0,590,4
18,147,6,left,S1,0.0,833,4
18,148,9,right,S4,4.0,567,4
18,149,2,left,S2,0.0,721,4
18,150,3,right,S4,4.0,1580,4
18,151,6,left,S1,0.0,759,4
18,152,4,left,S3,2.0,898,4
18,153,7,left,S2,4.0,763,4
18,154,9,left,S4,4.0,624,4
18,155,1,right,S2,0.0,762,4
18,156,1,right,S2,4.0,782,4
18,157,2,right,S2,4.0,679,4
18,158,6,left,S1,0.0,693,4
18,159,2,left,S2,0.0,873,4
18,160,5,right,S4,4.0,767,4
18,161,9,left,S4,4.0,887,4
18,162,4,left,S1,0.0,1196,4
18,163,2,left,S2,0.0,1179,4
18,164,7,right,wrongside,,903,4
18,165,2,right,S2,4.0,1346,4
18,166,4,left,S1,0.0,1270,4
18,167,2,left,S2,0.0,860,4
18,168,9,right,S4,4.0,652,4
18,169,4,right,S3,2.0,795,4
18,170,7,left,S2,0.0,914,4
18,171,9,left,S4,4.0,609,4
18,172,4,right,S3,2.0,743,4
18,173,4,right,S1,0.0,821,4
18,174,3,right,S4,4.0,979,4
18,175,7,left,S2,4.0,736,4
18,176,3,right,S4,4.0,806,4
19,1,8,right,S3,2.0,748,4
19,2,3,right,S2,4.0,1243,4
19,3,7,right,S2,4.0,727,4
19,4,6,right,S1,0.0,595,4
19,5,4,left,S3,2.0,791,4
19,6,7,right,S2,4.0,1049,4
19,7,7,right,S2,0.0,927,4
19,8,6,left,S1,0.0,1019,4
19,9,8,right,S3,2.0,791,4
19,10,1,left,S1,0.0,1611,4
19,11,6,left,S1,0.0,416,4
19,12,1,right,S2,4.0,769,4
19,13,9,right,S4,4.0,570,4
19,14,8,left,S3,2.0,809,4
19,15,6,left,S1,0.0,730,4
19,16,9,left,S4,4.0,499,4
19,17,7,left,S2,0.0,787,4
19,18,9,right,S4,4.0,392,4
19,19,2,right,S3,2.0,769,4
19,20,4,left,S1,0.0,727,4
19,21,9,left,S4,4.0,617,4
19,22,5,right,S3,2.0,918,4
19,23,2,right,S3,2.0,996,4
19,24,3,right,S4,4.0,1242,4
19,25,5,left,S4,4.0,867,4
19,26,8,left,S3,2.0,923,4
19,27,2,right,S2,0.0,1494,4
19,28,7,left,S2,0.0,842,4
19,29,1,left,S2,0.0,1247,4
19,30,8,left,S3,2.0,822,4
19,31,2,left,S3,2.0,869,4
19,32,5,right,S4,4.0,665,4
19,33,9,right,S4,4.0,538,4
19,34,7,right,S2,4.0,722,4
19,35,5,left,S4,4.0,835,4
19,36,8,right,S3,2.0,466,4
19,37,5,right,S4,4.0,808,4
19,38,4,right,S3,2.0,1011,4
19,39,2,right,S3,2.0,879,4
19,40,9,right,S4,4.0,490,4
19,41,2,left,S3,2.0,647,4
19,42,5,left,S4,4.0,723,4
19,43,2,left,S3,2.0,694,4
19,44,3,right,S4,4.0,575,4
19,45,7,right,S2,4.0,763,4
19,46,3,right,S4,4.0,625,4
19,47,2,right,S3,2.0,780,4
19,48,8,right,S3,2.0,450,4
19,49,7,right,S2,4.0,420,4
19,50,2,left,S3,2.0,659,4
19,51,1,left,S2,0.0,1154,4
19,52,4,left,S3,2.0,861,4
19,53,6,right,S1,0.0,712,4
19,54,3,right,S4,4.0,620,4
19,55,3,right,S4,4.0,667,4
19,56,5,left,S4,4.0,578,4
19,57,2,left,S3,2.0,558,4
19,58,6,left,S1,0.0,814,4
19,59,6,right,S1,0.0,443,4
19,60,3,right,S4,4.0,537,4
19,61,7,right,S2,0.0,491,4
19,62,8,right,S3,2.0,498,4
19,63,2,left,S3,2.0,422,4
19,64,1,right,S1,0.0,399,4
19,65,6,left,S1,0.0,460,4
19,66,7,right,S2,0.0,423,4
19,67,2,left,S3,2.0,648,4
19,68,4,left,S3,2.0,1008,4
19,69,3,right,S4,4.0,595,4
19,70,9,right,S4,4.0,470,4
19,71,9,left,S4,4.0,530,4
19,72,2,left,S3,2.0,982,4
19,73,4,right,S3,2.0,839,4
19,74,5,left,S4,4.0,687,4
19,75,1,left,S2,4.0,1162,4
19,76,1,left,S2,0.0,891,4
19,77,3,right,S4,4.0,584,4
19,78,1,right,S2,4.0,948,4
19,79,2,right,S3,2.0,983,4
19,80,2,left,S3,2.0,851,4
19,81,8,left,S3,2.0,632,4
19,82,8,left,S3,2.0,450,4
19,83,9,left,S4,4.0,469,4
19,84,3,right,S4,4.0,602,4
19,85,3,right,S4,4.0,713,4
19,86,1,left,S2,0.0,743,4
19,87,3,left,S4,4.0,598,4
19,88,7,left,S2,4.0,655,4
19,89,4,right,S3,2.0,834,4
19,90,7,right,S2,4.0,574,4
19,91,8,left,S3,2.0,522,4
19,92,2,left,S3,2.0,980,4
19,93,4,right,S3,2.0,805,4
19,94,1,left,S2,0.0,763,4
19,95,8,right,S3,2.0,553,4
19,96,1,right,S2,4.0,676,4
19,97,7,left,S2,0.0,492,4
19,98,7,right,S2,4.0,428,4
19,99,9,right,S4,4.0,409,4
19,100,5,left,S4,4.0,651,4
19,101,4,right,S3,2.0,850,4
19,102,5,left,S3,2.0,646,4
19,103,3,left,S4,4.0,552,4
19,104,3,left,S4,4.0,553,4
19,105,1,left,S2,4.0,798,4
19,106,9,right,S4,4.0,470,4
19,107,2,left,S3,2.0,584,4
19,108,7,right,S2,0.0,749,4
19,109,2,left,S3,2.0,692,4
19,110,3,left,S4,4.0,597,4
19,111,6,left,S1,0.0,815,4
19,112,2,right,S3,2.0,898,4
19,113,1,left,S2,0.0,1127,4
19,114,2,right,S3,2.0,716,4
19,115,3,right,S4,4.0,805,4
19,116,4,right,S3,2.0,772,4
19,117,2,right,S3,2.0,663,4
19,118,2,right,S3,2.0,1077,4
19,119,3,left,S4,4.0,566,4
19,120,2,right,S3,2.0,1052,4
19,121,2,left,S3,2.0,1166,4
19,122,1,left,S2,4.0,1079,4
19,123,2,left,S3,2.0,909,4
19,124,7,right,S2,0.0,575,4
19,125,9,right,S4,4.0,485,4
19,126,2,right,S3,2.0,692,4
19,127,3,left,S4,4.0,739,4
19,128,5,right,S4,4.0,891,4
19,129,8,left,S3,2.0,577,4
19,130,4,right,S3,2.0,749,4
19,131,9,right,S4,4.0,508,4
19,132,4,left,S1,0.0,1016,4
19,133,6,left,S1,0.0,784,4
19,134,1,left,S2,4.0,1041,4
19,135,1,right,S2,0.0,706,4
19,136,5,right,S4,4.0,563,4
19,137,1,left,S2,4.0,634,4
19,138,1,right,S2,4.0,937,4
19,139,3,left,S4,4.0,540,4
19,140,2,right,S2,4.0,1439,4
19,141,7,left,S2,0.0,753,4
19,142,1,right,S2,0.0,633,4
19,143,2,right,S3,2.0,700,4
19,144,8,right,S3,2.0,696,4
19,145,5,left,S4,4.0,558,4
19,146,1,right,S2,0.0,679,4
19,147,6,right,S1,0.0,544,4
19,148,5,right,S4,4.0,616,4
19,149,3,left,S4,4.0,591,4
19,150,3,left,S4,4.0,465,4
19,151,5,right,S4,4.0,469,4
19,152,1,right,S2,4.0,748,4
19,153,4,right,S3,2.0,890,4
19,154,6,right,S1,0.0,810,4
19,155,2,left,S3,2.0,807,4
19,156,2,left,S3,2.0,849,4
19,157,9,right,S4,4.0,557,4
19,158,5,left,S4,4.0,647,4
19,159,4,left,S3,2.0,968,4
19,160,6,left,S1,0.0,681,4
19,161,6,right,S1,0.0,565,4
19,162,4,right,S3,2.0,787,4
19,163,4,left,S3,2.0,737,4
19,164,7,left,S2,0.0,780,4
19,165,4,left,S3,2.0,751,4
19,166,9,right,S4,4.0,436,4
19,167,3,right,S4,4.0,551,4
19,168,6,right,S1,0.0,641,4
19,169,5,right,S4,4.0,514,4
19,170,1,left,S1,0.0,574,4
19,171,6,right,S1,0.0,439,4
19,172,2,left,S2,0.0,1101,4
19,173,2,left,S3,2.0,728,4
19,174,9,right,S4,4.0,554,4
19,175,8,left,S3,2.0,516,4
19,176,8,left,S3,2.0,531,4
20,1,6,left,S1,0.0,2474,4
20,2,6,left,S1,0.0,502,4
20,3,3,right,S2,0.0,588,4
20,4,7,left,S2,4.0,524,4
20,5,7,right,S2,4.0,506,4
20,6,8,left,S3,2.0,505,4
20,7,7,right,S2,4.0,346,4
20,8,5,right,S4,4.0,727,4
20,9,9,right,S4,4.0,444,4
20,10,2,right,S2,0.0,590,4
20,11,8,left,S3,2.0,387,4
20,12,7,left,S2,4.0,428,4
20,13,8,right,S3,2.0,336,4
20,14,6,left,S1,0.0,348,4
20,15,2,right,S2,0.0,437,4
20,16,9,left,S4,4.0,307,4
20,17,9,right,S4,4.0,347,4
20,18,5,right,S4,4.0,507,4
20,19,9,left,S4,4.0,452,4
20,20,3,left,S2,0.0,459,4
20,21,4,right,S3,2.0,623,4
20,22,1,left,S1,0.0,658,4
20,23,4,right,S1,0.0,382,4
20,24,1,left,S1,0.0,410,4
20,25,8,right,S3,2.0,277,4
20,26,6,left,wrongside,,356,4
20,27,3,left,S2,4.0,454,4
20,28,3,right,S2,4.0,359,4
20,29,5,right,S4,4.0,502,4
20,30,2,right,S2,0.0,556,4
20,31,5,right,S4,4.0,396,4
20,32,7,right,S2,4.0,437,4
20,33,8,left,S3,2.0,389,4
20,34,1,left,S2,4.0,722,4
20,35,9,right,S4,4.0,388,4
20,36,2,left,S2,0.0,477,4
20,37,1,right,S1,0.0,411,4
20,38,9,left,S4,4.0,433,4
20,39,5,left,S4,4.0,433,4
20,40,2,right,S2,0.0,674,4
20,41,6,left,S1,0.0,479,4
20,42,7,left,S2,0.0,412,4
20,43,1,left,S1,0.0,651,4
20,44,7,left,S2,4.0,540,4
20,45,3,right,S2,0.0,626,4
20,46,6,right,S1,0.0,651,4
20,47,8,left,S3,2.0,431,4
20,48,3,left,S2,0.0,706,4
20,49,3,right,S4,4.0,609,4
20,50,6,right,S1,0.0,426,4
20,51,9,left,S4,4.0,455,4
20,52,3,right,S4,4.0,466,4
20,53,4,right,S1,0.0,510,4
20,54,5,right,S4,4.0,706,4
20,55,2,left,S2,4.0,902,4
20,56,2,right,S2,0.0,1046,4
20,57,4,right,S1,0.0,566,4
20,58,8,left,S3,2.0,521,4
20,59,5,left,S4,4.0,645,4
20,60,4,left,S3,2.0,1079,4
20,61,7,right,S2,4.0,567,4
20,62,1,left,S2,0.0,812,4
20,63,2,right,S2,4.0,437,4
20,64,3,right,S4,4.0,1155,4
20,65,2,right,S3,2.0,757,4
20,66,1,left,S2,0.0,1017,4
20,67,3,right,S2,0.0,771,4
20,68,3,right,S2,4.0,630,4
20,69,7,right,S2,4.0,940,4
20,70,2,right,S2,4.0,1088,4
20,71,1,left,S2,0.0,630,4
20,72,2,right,S2,0.0,426,4
20,73,3,right,S4,4.0,839,4
20,74,4,right,S3,2.0,855,4
20,75,2,right,S2,4.0,653,4
20,76,5,right,S4,4.0,496,4
20,77,2,right,S2,4.0,472,4
20,78,4,right,S1,0.0,474,4
20,79,2,left,S2,0.0,761,4
20,80,4,right,S3,2.0,560,4
20,81,6,left,S1,0.0,828,4
20,82,2,left,S3,2.0,1152,4
20,83,7,left,S2,4.0,641,4
20,84,5,left,S4,4.0,689,4
20,85,3,right,S4,4.0,840,4
20,86,2,left,S2,0.0,807,4
20,87,4,right,S3,2.0,573,4
20,88,2,left,S2,0.0,760,4
20,89,4,left,S1,0.0,861,4
20,90,6,left,S1,0.0,789,4
20,91,1,left,S2,0.0,864,4
20,92,4,left,S3,2.0,850,4
20,93,6,right,S1,0.0,769,4
20,94,9,right,S4,4.0,521,4
20,95,7,left,S2,4.0,623,4
20,96,1,right,S2,4.0,1102,4
20,97,2,left,S2,4.0,1073,4
20,98,9,right,S4,4.0,589,4
20,99,2,right,S2,4.0,993,4
20,100,3,left,S4,4.0,892,4
20,101,6,right,S1,0.0,912,4
20,102,6,right,S1,0.0,555,4
20,103,1,left,S2,0.0,1010,4
20,104,8,right,S3,2.0,661,4
20,105,1,left,S2,0.0,749,4
20,106,2,left,S2,4.0,687,4
20,107,8,right,S3,2.0,535,4
20,108,9,left,S4,4.0,539,4
20,109,1,left,S2,0.0,936,4
20,110,1,left,S2,0.0,848,4
20,111,2,left,S3,2.0,932,4
20,112,6,right,S1,0.0,641,4
20,113,3,right,S4,4.0,850,4
20,114,4,left,S1,0.0,563,4
20,115,2,left,S3,2.0,862,4
20,116,5,left,S3,2.0,585,4
20,117,2,left,S3,2.0,698,4
20,118,5,right,S4,4.0,669,4
20,119,2,left,S3,2.0,647,4
20,120,9,right,S4,4.0,519,4
20,121,5,left,S4,4.0,744,4
20,122,7,right,S2,4.0,572,4
20,123,6,left,S1,0.0,763,4
20,124,4,right,S3,2.0,905,4
20,125,2,right,S2,0.0,1022,4
20,126,7,left,S2,0.0,619,4
20,127,4,left,S3,2.0,622,4
20,128,9,right,S4,4.0,510,4
20,129,1,right,S2,4.0,833,4
20,130,9,left,S4,4.0,636,4
20,131,1,right,S1,0.0,921,4
20,132,2,left,S2,4.0,1006,4
20,133,8,left,S3,2.0,547,4
20,134,8,left,S3,2.0,544,4
20,135,8,left,S3,2.0,566,4
20,136,9,right,S4,4.0,523,4
20,137,8,right,S3,2.0,593,4
20,138,8,left,S3,2.0,539,4
20,139,2,left,S3,2.0,619,4
20,140,3,left,S4,4.0,576,4
20,141,3,left,S4,4.0,589,4
20,142,1,right,S2,0.0,924,4
20,143,1,right,S1,0.0,723,4
20,144,3,left,S4,4.0,505,4
20,145,6,left,S1,0.0,416,4
20,146,8,right,S3,2.0,395,4
20,147,1,right,S2,4.0,590,4
20,148,2,right,S2,4.0,703,4
20,149,1,right,S2,0.0,688,4
20,150,3,right,S4,4.0,642,4
20,151,2,left,S2,0.0,1013,4
20,152,5,right,S4,4.0,805,4
20,153,2,right,S3,2.0,871,4
20,154,1,left,S2,4.0,697,4
20,155,6,left,S1,0.0,473,4
20,156,4,left,S3,2.0,683,4
20,157,3,right,S4,4.0,646,4
20,158,4,right,S3,2.0,1326,4
20,159,7,left,S2,4.0,498,4
20,160,7,right,S2,0.0,454,4
20,161,9,right,S4,4.0,585,4
20,162,5,right,S4,4.0,550,4
20,163,7,right,S2,4.0,432,4
20,164,4,left,S1,0.0,656,4
20,165,2,right,S2,4.0,623,4
20,166,1,right,S1,0.0,726,4
20,167,3,left,S4,4.0,637,4
20,168,3,left,S4,4.0,672,4
20,169,9,right,S4,4.0,476,4
20,170,7,left,S2,0.0,555,4
20,171,5,right,S4,4.0,402,4
20,172,7,right,S2,0.0,622,4
20,173,5,right,S4,4.0,754,4
20,174,2,left,S2,0.0,1097,4
20,175,5,right,S4,4.0,534,4
20,176,8,right,S3,2.0,570,4
21,1,1,left,S2,4.0,429,4
21,2,8,right,S3,2.0,487,4
21,3,7,right,S2,0.0,487,4
21,4,7,right,S2,0.0,549,4
21,5,5,left,S3,2.0,643,4
21,6,6,right,S1,0.0,434,4
21,7,6,right,S1,0.0,395,4
21,8,4,right,S3,2.0,663,4
21,9,5,right,S4,4.0,691,4
21,10,2,right,S2,0.0,662,4
21,11,9,right,S4,4.0,448,4
21,12,8,right,wrongside,,557,4
21,13,6,right,S1,0.0,459,4
21,14,2,right,S3,2.0,561,4
21,15,3,left,S4,4.0,550,4
21,16,6,left,wrongside,,597,4
21,17,7,left,S2,4.0,488,4
21,18,9,right,S4,4.0,451,4
21,19,4,right,S1,0.0,561,4
21,20,3,right,S4,4.0,422,4
21,21,1,right,S2,4.0,675,4
21,22,7,left,S2,0.0,365,4
21,23,8,left,S3,2.0,422,4
21,24,9,right,S4,4.0,382,4
21,25,8,left,S3,2.0,354,4
21,26,9,left,S4,4.0,400,4
21,27,4,right,S1,0.0,518,4
21,28,6,left,S1,0.0,357,4
21,29,4,left,S3,2.0,555,4
21,30,5,left,S4,4.0,490,4
21,31,1,right,S2,4.0,642,4
21,32,2,left,S2,4.0,677,4
21,33,1,left,S2,4.0,663,4
21,34,2,right,S2,0.0,609,4
21,35,9,right,S4,4.0,398,4
21,36,9,right,S4,4.0,496,4
21,37,5,right,S4,4.0,556,4
21,38,5,left,S3,2.0,523,4
21,39,5,left,S4,4.0,489,4
21,40,7,right,S2,4.0,390,4
21,41,6,right,S1,0.0,414,4
21,42,2,right,S2,0.0,692,4
21,43,1,left,S1,0.0,414,4
21,44,2,left,S2,0.0,699,4
21,45,9,right,S4,4.0,360,4
21,46,7,left,S2,0.0,412,4
21,47,3,right,S4,4.0,483,4
21,48,8,right,S3,2.0,563,4
21,49,2,right,S3,2.0,636,4
21,50,2,left,S3,2.0,667,4
21,51,1,right,S1,0.0,527,4
21,52,7,right,S2,4.0,385,4
21,53,2,left,S2,0.0,566,4
21,54,3,left,S4,4.0,528,4
21,55,4,right,S3,2.0,573,4
21,56,3,left,S4,4.0,543,4
21,57,4,left,S3,2.0,581,4
21,58,2,right,S2,0.0,699,4
21,59,3,left,S4,4.0,508,4
21,60,7,right,S2,0.0,528,4
21,61,3,left,S4,4.0,515,4
21,62,9,right,S4,4.0,388,4
21,63,5,right,S4,4.0,572,4
21,64,2,left,S3,2.0,425,4
21,65,2,right,S2,4.0,731,4
21,66,9,right,S4,4.0,391,4
21,67,4,right,S3,2.0,646,4
21,68,7,left,S2,4.0,458,4
21,69,6,right,S1,0.0,365,4
21,70,2,left,S2,4.0,767,4
21,71,7,left,S2,0.0,389,4
21,72,5,left,S4,4.0,586,4
21,73,5,right,S4,4.0,624,4
21,74,6,left,S1,0.0,446,4
21,75,7,right,S2,4.0,398,4
21,76,1,left,S1,0.0,440,4
21,77,1,right,S2,4.0,486,4
21,78,9,right,S4,4.0,338,4
21,79,2,right,S3,2.0,500,4
21,80,1,left,S2,4.0,584,4
21,81,3,left,S4,4.0,502,4
21,82,1,right,S2,4.0,688,4
21,83,2,left,S3,2.0,675,4
21,84,1,left,S2,0.0,819,4
21,85,2,right,S2,0.0,705,4
21,86,2,right,S2,0.0,726,4
21,87,5,right,S4,4.0,720,4
21,88,2,right,S2,4.0,687,4
21,89,3,left,S4,4.0,628,4
21,90,4,right,S3,2.0,816,4
21,91,6,left,S1,0.0,462,4
21,92,1,left,S2,0.0,603,4
21,93,5,right,S4,4.0,681,4
21,94,3,left,S4,4.0,482,4
21,95,1,right,S2,4.0,570,4
21,96,2,left,S2,0.0,702,4
21,97,1,right,S1,0.0,713,4
21,98,1,left,S2,4.0,467,4
21,99,5,left,S4,4.0,488,4
21,100,6,right,S1,0.0,459,4
21,101,9,right,S4,4.0,392,4
21,102,3,right,S4,4.0,452,4
21,103,5,left,S4,4.0,590,4
21,104,7,right,S2,4.0,412,4
21,105,2,right,S2,0.0,655,4
21,106,9,left,S4,4.0,401,4
21,107,2,left,S2,4.0,648,4
21,108,4,left,S1,0.0,719,4
21,109,3,left,S4,4.0,481,4
21,110,3,left,S4,4.0,477,4
21,111,3,left,S4,4.0,362,4
21,112,2,right,S3,2.0,481,4
21,113,2,right,S3,2.0,605,4
21,114,8,left,S3,2.0,682,4
21,115,5,left,S4,4.0,518,4
21,116,3,left,S4,4.0,472,4
21,117,5,right,S4,4.0,589,4
21,118,2,right,S3,2.0,663,4
21,119,2,right,S3,2.0,563,4
21,120,4,left,S3,2.0,625,4
21,121,1,left,S2,0.0,462,4
21,122,3,right,S4,4.0,453,4
21,123,1,right,S2,0.0,603,4
21,124,8,left,S3,2.0,404,4
21,125,4,right,S1,0.0,610,4
21,126,2,left,S3,2.0,489,4
21,127,8,left,S3,2.0,390,4
21,128,8,right,S3,2.0,373,4
21,129,3,left,S4,4.0,463,4
21,130,7,left,S2,4.0,385,4
21,131,6,right,S1,0.0,392,4
21,132,2,right,S3,2.0,643,4
21,133,5,left,S4,4.0,440,4
21,134,8,left,S3,2.0,358,4
21,135,1,right,S2,0.0,506,4
21,136,3,right,S4,4.0,564,4
21,137,2,left,S3,2.0,520,4
21,138,4,right,S3,2.0,532,4
21,139,2,right,S3,2.0,719,4
21,140,6,right,S1,0.0,377,4
21,141,1,left,S2,0.0,479,4
21,142,1,left,S2,4.0,833,4
21,143,6,left,S1,0.0,421,4
21,144,8,right,S3,2.0,388,4
21,145,4,right,S1,0.0,598,4
21,146,4,right,S3,2.0,651,4
21,147,6,left,S1,0.0,390,4
21,148,4,left,S3,2.0,732,4
21,149,4,left,S3,2.0,694,4
21,150,2,left,S2,4.0,518,4
21,151,9,left,S4,4.0,480,4
21,152,7,right,S2,0.0,394,4
21,153,8,left,S3,2.0,365,4
21,154,6,left,S1,0.0,450,4
21,155,2,left,S2,0.0,554,4
21,156,3,right,S4,4.0,581,4
21,157,7,right,S2,4.0,525,4
21,158,9,right,S4,4.0,379,4
21,159,7,left,S2,0.0,417,4
21,160,2,left,S2,0.0,650,4
21,161,9,right,S4,4.0,382,4
21,162,4,left,S1,0.0,657,4
21,163,8,right,S3,2.0,374,4
21,164,7,left,S2,4.0,405,4
21,165,3,left,S4,4.0,656,4
21,166,5,left,S4,4.0,396,4
21,167,1,right,S2,4.0,653,4
21,168,8,left,S3,2.0,470,4
21,169,7,right,S2,4.0,402,4
21,170,3,left,S4,4.0,516,4
21,171,6,left,S1,0.0,373,4
21,172,9,right,S4,4.0,493,4
21,173,8,left,S3,2.0,360,4
21,174,8,right,S3,2.0,338,4
21,175,3,right,S4,4.0,478,4
21,176,1,right,S1,0.0,446,4
22,1,6,left,S1,0.0,958,4
22,2,2,right,S2,4.0,1006,4
22,3,9,left,S4,4.0,794,4
22,4,5,right,S4,4.0,900,4
22,5,5,left,S4,4.0,988,4
22,6,2,left,S3,2.0,844,4
22,7,7,right,S2,4.0,668,4
22,8,4,right,S1,0.0,903,4
22,9,9,left,S4,4.0,551,4
22,10,6,left,S1,0.0,1104,4
22,11,1,right,S2,4.0,682,4
22,12,9,right,S4,4.0,747,4
22,13,3,left,S2,0.0,731,4
22,14,4,right,S3,2.0,784,4
22,15,8,right,S3,2.0,793,4
22,16,7,right,S2,0.0,929,4
22,17,7,right,S2,0.0,665,4
22,18,9,right,S4,4.0,705,4
22,19,8,right,S3,2.0,756,4
22,20,1,left,S1,0.0,926,4
22,21,3,right,S4,4.0,855,4
22,22,6,left,S1,0.0,727,4
22,23,6,left,S1,0.0,679,4
22,24,7,right,S2,0.0,539,4
22,25,8,left,S3,2.0,569,4
22,26,8,right,S3,2.0,601,4
22,27,2,left,S3,2.0,905,4
22,28,5,right,S4,4.0,815,4
22,29,9,left,S4,4.0,738,4
22,30,1,left,S1,0.0,889,4
22,31,7,left,S2,4.0,715,4
22,32,8,left,S3,2.0,737,4
22,33,5,right,S4,4.0,734,4
22,34,3,right,S4,4.0,1016,4
22,35,3,left,S2,4.0,958,4
22,36,2,left,S2,0.0,1378,4
22,37,9,right,S4,4.0,681,4
22,38,6,right,S1,0.0,787,4
22,39,2,right,S2,0.0,212,4
22,40,3,left,S4,4.0,832,4
22,41,4,left,S1,0.0,1207,4
22,42,5,right,S4,4.0,917,4
22,43,2,right,S3,2.0,975,4
22,44,3,right,S4,4.0,824,4
22,45,6,right,S1,0.0,784,4
22,46,8,right,S3,2.0,594,4
22,47,8,left,S3,2.0,750,4
22,48,3,left,S4,4.0,853,4
22,49,5,left,S4,4.0,880,4
22,50,2,right,S3,2.0,1085,4
22,51,5,left,S4,4.0,822,4
22,52,2,right,S2,4.0,1022,4
22,53,2,left,S2,0.0,875,4
22,54,3,left,S4,4.0,796,4
22,55,1,left,S2,4.0,910,4
22,56,4,right,S3,2.0,883,4
22,57,2,right,S2,0.0,1022,4
22,58,9,left,S4,4.0,622,4
22,59,3,left,S4,4.0,726,4
22,60,7,left,S2,4.0,1092,4
22,61,2,right,S2,4.0,615,4
22,62,7,left,S2,0.0,669,4
22,63,5,right,S4,4.0,740,4
22,64,1,right,S2,4.0,816,4
22,65,4,right,S3,2.0,842,4
22,66,6,right,S1,0.0,620,4
22,67,2,right,S3,2.0,985,4
22,68,1,left,S2,4.0,747,4
22,69,9,left,S4,4.0,712,4
22,70,3,right,S2,0.0,961,4
22,71,1,left,S2,0.0,939,4
